07/06/22	12:18 PM
Experiment Type:	Generic
Modulated Cross Correlation
Scattering angle:	104.0
Duration (s):	300
Wavelength (nm):	660.0
Refractive index:	1.330
Viscosity (mPas):	0.890
Temperature (K):	298.1
Laser intensity (mW):	35.348400
Average Count rate  A (kHz):	175.5
Average Count rate  B (kHz):	139.4
Intercept:	1.0000
Cumulant 1st	NaN
Cumulant 2nd	NaN	NaN
Cumulant 3rd	NaN	NaN

Lag time (s)         g2-1
1.600000E-6	0.389039
3.200000E-6	0.383842
4.800000E-6	0.367602
6.400000E-6	0.351228
8.000000E-6	0.336096
9.600000E-6	0.321518
1.120000E-5	0.307446
1.280000E-5	0.294798
1.440000E-5	0.282896
1.600000E-5	0.270390
1.760000E-5	0.259220
1.920000E-5	0.248687
2.080000E-5	0.238295
2.240000E-5	0.228898
2.400000E-5	0.219097
2.560000E-5	0.210170
2.720000E-5	0.202011
3.040000E-5	0.186562
3.360000E-5	0.171759
3.680000E-5	0.158694
4.000000E-5	0.146305
4.320000E-5	0.135689
4.640000E-5	0.126174
4.960000E-5	0.116777
5.280000E-5	0.108193
5.920000E-5	0.093959
6.560000E-5	0.081615
7.200000E-5	0.071045
7.840000E-5	0.062133
8.480000E-5	0.054737
9.120000E-5	0.048349
9.760000E-5	0.042628
0.000104	0.037866
0.000117	0.030543
0.000130	0.024980
0.000142	0.020603
0.000155	0.017149
0.000168	0.014572
0.000181	0.012294
0.000194	0.010856
0.000206	0.009596
0.000232	0.007391
0.000258	0.006364
0.000283	0.005154
0.000309	0.004792
0.000334	0.004531
0.000360	0.004543
0.000386	0.003986
0.000411	0.003660
0.000462	0.003078
0.000514	0.002823
0.000565	0.002232
0.000616	0.001971
0.000667	0.001728
0.000718	0.001515
0.000770	0.001548
0.000821	0.001373
0.000923	0.000865
0.001026	0.001066
0.001128	0.000782
0.001230	0.000513
0.001333	0.000963
0.001435	0.000782
0.001538	0.000301
0.001640	0.000500
0.001845	0.000142
0.002050	0.000147
0.002254	0.000488
0.002459	0.000679
0.002664	-0.000193
0.002869	0.000246
0.003074	0.000143
0.003278	0.000370
0.003688	0.000168
0.004098	0.000273
0.004507	0.000354
0.004917	3.443840E-5
0.005326	0.000125
0.005736	0.000383
0.006146	0.000425
0.006555	0.000335
0.007374	0.000427
0.008194	0.000196
0.009013	0.000256
0.009832	0.000378
0.010651	0.000224
0.011470	0.000157
0.012290	0.000372
0.013109	0.000283
0.014747	7.432049E-5
0.016386	0.000144
0.018024	0.000153
0.019662	0.000219
0.021301	0.000177
0.022939	0.000404
0.024578	0.000243
0.026216	9.804250E-5
0.029493	0.000151
0.032770	0.000156
0.036046	0.000316
0.039323	0.000259
0.042600	0.000326
0.045877	0.000159
0.049154	0.000253
0.052430	0.000206
0.058984	0.000258
0.065538	7.706629E-5
0.072091	0.000232
0.078645	0.000117
0.085198	0.000246
0.091752	0.000156
0.098306	0.000179
0.104859	0.000199
0.117966	0.000170
0.131074	0.000179
0.144181	0.000158
0.157288	0.000157
0.170395	0.000165
0.183502	0.000231
0.196610	0.000214
0.209717	0.000201
0.235931	0.000249
0.262146	0.000183
0.288360	0.000224
0.314574	0.000163
0.340789	0.000208
0.367003	0.000117
0.393218	0.000143
0.419432	0.000189
0.471861	0.000141
0.524290	9.158505E-5
0.576718	0.000118
0.629147	0.000121
0.681576	0.000131
0.734005	7.287200E-5
0.786434	9.796246E-5
0.838862	9.151490E-5
0.943720	9.164331E-5
1.048578	5.794332E-5
1.153435	2.451676E-5
1.258293	6.468457E-5
1.363150	1.085301E-5
1.468008	1.491635E-5
1.572866	-2.972354E-5
1.677723	-4.231809E-5
1.887438	-9.840063E-5
2.097154	-0.000146
2.306869	-0.000192
2.516584	-0.000214
2.726299	-0.000217
2.936014	-0.000241
3.145730	-0.000266
3.355445	-0.000273
3.774875	-0.000338
4.194305	-0.000432
4.613736	-0.000489
5.033166	-0.000587
5.452597	-0.000615
5.872027	-0.000685
6.291458	-0.000764
6.710888	-0.000777
7.549749	-0.000953
8.388610	-0.001139
9.227470	-0.001261
10.066331	-0.001356
10.905192	-0.001444
11.744053	-0.001530
12.582913	-0.001609
13.421775	-0.001699
15.099496	-0.001869
16.777218	-0.001997
18.454939	-0.002212
20.132660	-0.002376
21.810383	-0.002449
23.488104	-0.002688
25.165825	-0.002920
26.843548	-0.003154
30.198990	-0.003606
33.554432	-0.004028
36.909878	-0.004175
40.265320	-0.004489
43.620762	-0.004768
46.976208	-0.005024
50.331650	-0.005238
53.687092	-0.005619
60.397980	-0.006321
67.108864	-0.006840
73.819756	-0.007216
80.530640	-0.007441
87.241524	-0.007601
93.952408	-0.008021
100.663300	-0.008240
107.374184	-0.008542
120.795959	-0.009118
134.217728	-0.009852
147.639496	-0.010152
161.061279	-0.010047
174.483047	-0.009818
187.904816	-0.010315
201.326599	-0.010110
214.748367	-0.008692
241.591919	-0.008540
268.435455	-0.008930

Count Rate History (KHz)  CR CHA / CR CHB
0.000000	185.489655	142.860413
0.052429	175.189972	142.841339
0.104858	174.751282	135.936737
0.157286	178.184509	142.498016
0.209715	186.862946	142.002106
0.262144	202.331543	156.612396
0.314573	183.906555	156.478882
0.367002	181.560516	135.307312
0.419430	199.775696	154.991150
0.471859	183.067322	150.260925
0.524288	184.478760	138.702393
0.576717	172.634125	143.203735
0.629146	165.176392	142.421722
0.681574	186.061859	145.816803
0.734003	183.029175	149.345398
0.786432	185.451508	143.165588
0.838861	187.988281	150.432587
0.891290	180.358887	140.762329
0.943718	186.977386	146.980286
0.996147	192.527771	148.143768
1.048576	187.816620	148.868561
1.101005	174.064636	142.955780
1.153434	193.691254	146.675110
1.205862	182.838440	140.876770
1.258291	194.854736	152.664185
1.310720	180.397034	144.386292
1.363149	188.770294	148.773193
1.415578	178.165436	150.184631
1.468006	183.620453	150.947571
1.520435	181.083679	145.797729
1.572864	188.846588	153.503418
1.625293	196.208954	142.478943
1.677722	189.933777	140.342712
1.730150	183.792114	142.517090
1.782579	196.456909	148.086548
1.835008	187.759399	150.299072
1.887437	185.661316	145.587921
1.939866	186.901093	153.846741
1.992294	189.552307	153.236389
2.044723	208.454132	151.576996
2.097152	191.898346	146.636963
2.149581	195.789337	146.465302
2.202010	200.538635	152.835846
2.254438	179.748535	139.141083
2.306867	178.718567	142.707825
2.359296	181.083679	143.966675
2.411725	172.996521	145.988464
2.464154	189.666748	144.920349
2.516582	179.862976	130.138397
2.569011	181.636810	135.059357
2.621440	189.838409	145.053864
2.673869	192.222595	150.642395
2.726298	182.399750	137.100220
2.778726	170.249939	135.288239
2.831155	205.020905	153.503418
2.883584	189.685822	147.304535
2.936013	199.699402	152.759552
2.988442	188.598633	143.489838
3.040870	182.895660	144.805908
3.093299	174.560547	148.067474
3.145728	181.694031	140.476227
3.198157	179.729462	138.626099
3.250586	171.260834	150.165558
3.303014	194.530487	132.923126
3.355443	176.067352	144.233704
3.407872	179.805756	144.195557
3.460301	183.868408	139.408112
3.512730	186.576843	149.650574
3.565158	184.593201	150.947571
3.617587	192.470551	140.190125
3.670016	176.849365	149.021149
3.722445	176.811218	139.789581
3.774874	190.734863	149.803162
3.827302	190.372467	153.636932
3.879731	170.936584	147.399902
3.932160	181.045532	144.767761
3.984589	179.328918	141.849518
4.037018	182.952881	147.686005
4.089446	185.050964	151.729584
4.141875	174.636841	152.950287
4.194304	182.285309	151.805878
4.246733	182.399750	140.266418
4.299162	189.971924	146.636963
4.351590	187.511444	147.171021
4.404019	190.887451	149.002075
4.456448	196.609497	145.397186
4.508877	181.865692	141.124725
4.561306	179.691315	132.617950
4.613734	171.012878	138.206482
4.666163	185.146332	153.083801
4.718592	180.473328	155.048370
4.771021	188.217163	154.571533
4.823450	180.282593	134.525299
4.875878	191.040039	147.571564
4.928307	178.527832	138.435364
4.980736	198.459625	164.318085
5.033165	172.691345	148.639679
5.085594	180.168152	139.522552
5.138022	193.462372	152.816772
5.190451	202.350616	144.863129
5.242880	192.966461	139.045715
5.295309	193.500519	141.963959
5.347738	184.612274	142.250061
5.400166	180.473328	137.672424
5.452595	190.162659	158.367157
5.505024	182.704926	148.544312
5.557453	182.247162	148.334503
5.609882	176.963806	146.331787
5.662310	193.786621	141.391754
5.714739	190.486908	151.958466
5.767168	201.492310	142.707825
5.819597	191.650391	132.026672
5.872026	197.334290	152.034760
5.924454	188.636780	154.628754
5.976883	171.756744	142.040253
6.029312	174.350739	149.726868
6.081741	185.050964	139.427185
6.134170	165.519714	144.443512
6.186598	187.091827	140.056610
6.239027	190.715790	155.830383
6.291456	179.004669	145.454407
6.343885	189.018250	134.429932
6.396314	184.459686	138.854980
6.448742	176.601410	147.075653
6.501171	180.912018	138.149261
6.553600	181.789398	129.203796
6.606029	180.664062	140.151978
6.658458	172.061920	140.514374
6.710886	195.064545	158.348083
6.763315	182.952881	139.122009
6.815744	191.574097	160.617828
6.868173	187.377930	155.200958
6.920602	190.601349	147.609711
6.973030	179.214478	147.647858
7.025459	178.432465	134.296417
7.077888	175.914764	143.413544
7.130317	188.179016	148.048401
7.182746	198.020935	146.942139
7.235174	187.854767	147.476196
7.287603	190.887451	138.530731
7.340032	175.380707	140.419006
7.392461	178.432465	152.454376
7.444890	186.843872	150.928497
7.497318	175.895691	153.846741
7.549747	192.756653	159.702301
7.602176	189.914703	142.288208
7.654605	180.130005	144.977570
7.707034	191.001892	150.718689
7.759462	193.042755	159.282684
7.811891	182.037354	145.339966
7.864320	186.691284	143.222809
7.916749	190.830231	146.999359
7.969178	178.337097	150.966644
8.021606	180.091858	139.198303
8.074035	173.492432	135.478973
8.126464	182.418823	156.822205
8.178893	184.059143	147.361755
8.231322	190.010071	143.165588
8.283750	195.274353	152.339935
8.336179	174.922943	137.863159
8.388608	174.865723	146.312714
8.441037	203.056335	148.887634
8.493466	192.642212	150.985718
8.545894	193.691254	139.408112
8.598323	177.822113	141.906738
8.650752	200.748444	154.533386
8.703181	191.287994	147.266388
8.755610	176.753998	143.260956
8.808038	181.617737	141.391754
8.860467	186.672211	143.108368
8.912896	179.519653	150.413513
8.965325	185.680389	142.955780
9.017754	182.971954	142.803192
9.070182	200.271606	149.002075
9.122611	192.890167	153.636932
9.175040	177.135468	138.092041
9.227469	179.672241	144.424438
9.279898	185.031891	146.579742
9.332326	183.658600	148.849487
9.384755	182.113647	148.029327
9.437184	187.644958	143.032074
9.489613	189.170837	148.315430
9.542042	180.034637	140.533447
9.594470	187.015533	148.200989
9.646899	189.476013	143.814087
9.699328	181.427002	136.775970
9.751757	175.876617	145.244598
9.804186	190.486908	143.051147
9.856614	180.644989	149.040222
9.909043	178.737640	133.590698
9.961472	169.258118	131.244659
10.013901	189.151764	140.361786
10.066330	190.448761	145.549774
10.118758	193.729401	141.372681
10.171187	190.162659	150.356293
10.223616	177.955627	146.121979
10.276045	181.198120	141.429901
10.328474	182.075500	142.612457
10.380902	168.113708	134.868622
10.433331	180.854797	142.517090
10.485760	174.903870	145.816803
10.538189	174.674988	147.018433
10.590618	188.713074	159.187317
10.643046	179.290771	127.506256
10.695475	184.192657	146.312714
10.747904	192.718506	135.879517
10.800333	178.413391	139.522552
10.852762	172.367096	144.290924
10.905190	183.467865	144.729614
10.957619	180.072784	138.664246
11.010048	180.835724	157.890320
11.062477	173.282623	134.792328
11.114906	172.233582	148.029327
11.167334	189.266205	147.800446
11.219763	180.377960	152.530670
11.272192	180.644989	135.974884
11.324621	180.149078	140.514374
11.377050	174.636841	151.329041
11.429478	173.549652	134.601593
11.481907	174.217224	131.511688
11.534336	181.217194	134.735107
11.586765	180.892944	154.533386
11.639194	179.500580	149.517059
11.691622	179.729462	143.890381
11.744051	199.337006	152.702332
11.796480	181.255341	151.004791
11.848909	183.868408	142.993927
11.901338	183.086395	139.617920
11.953766	176.239014	147.743225
12.006195	180.740356	143.814087
12.058624	194.664001	156.478882
12.111053	173.740387	130.996704
12.163482	183.753967	133.514404
12.215910	193.042755	151.920319
12.268339	163.345337	131.702423
12.320768	194.091797	146.865845
12.373197	183.029175	139.636993
12.425626	206.451416	136.413574
12.478054	191.726685	151.348114
12.530483	178.470612	130.195618
12.582912	166.816711	137.462616
12.635341	198.001862	140.094757
12.687770	192.508698	143.318176
12.740198	183.868408	145.263672
12.792627	174.427032	141.735077
12.845056	162.448883	131.893158
12.897485	172.996521	146.694183
12.949914	192.241669	150.966644
13.002342	189.990997	144.443512
13.054771	177.803040	143.661499
13.107200	174.407959	134.048462
13.159629	192.298889	148.983002
13.212058	189.914703	152.168274
13.264486	195.693970	153.427124
13.316915	180.492401	133.419037
13.369344	174.198151	143.013000
13.421773	172.004700	144.042969
13.474202	177.764893	138.378143
13.526630	172.405243	136.604309
13.579059	198.707581	145.492554
13.631488	184.211731	134.506226
13.683917	185.241699	147.819519
13.736346	175.380707	142.440796
13.788774	175.189972	134.639740
13.841203	205.764771	144.577026
13.893632	173.988342	144.424438
13.946061	172.710419	136.737823
13.998490	187.416077	149.135590
14.050918	173.206329	135.345459
14.103347	193.061829	147.514343
14.155776	175.323486	140.228271
14.208205	181.274414	140.037537
14.260634	183.696747	141.124725
14.313062	176.391602	147.800446
14.365491	183.544159	146.789551
14.417920	176.258087	138.244629
14.470349	181.808472	148.048401
14.522778	180.664062	147.075653
14.575206	180.892944	139.865875
14.627635	186.920166	159.301758
14.680064	184.249878	146.865845
14.732493	192.890167	154.895782
14.784922	188.446045	144.596100
14.837350	182.533264	137.062073
14.889779	171.070099	137.042999
14.942208	175.971985	148.429871
14.994637	187.454224	150.203705
15.047066	163.173676	132.026672
15.099494	180.549622	144.405365
15.151923	177.230835	135.097504
15.204352	173.759460	137.386322
15.256781	179.729462	141.296387
15.309210	174.732208	148.220062
15.361638	188.732147	147.609711
15.414067	169.525146	147.438049
15.466496	190.448761	138.664246
15.518925	177.917480	134.353638
15.571354	167.388916	140.190125
15.623782	183.353424	151.729584
15.676211	171.089172	133.972168
15.728640	182.266235	145.931244
15.781069	174.217224	145.206451
15.833498	168.399811	131.225586
15.885926	180.053711	151.500702
15.938355	191.955566	150.737762
15.990784	173.892975	148.906708
16.043213	178.108215	135.707855
16.095642	189.342499	150.890350
16.148070	170.478821	140.724182
16.200499	177.650452	137.214661
16.252928	183.525085	137.195587
16.305357	181.407928	144.329071
16.357786	185.604095	136.089325
16.410214	183.124542	143.356323
16.462643	180.416107	148.353577
16.515072	200.405121	147.285461
16.567501	181.694031	139.789581
16.619930	183.982849	135.231018
16.672358	167.999268	137.348175
16.724787	177.745819	138.263702
16.777216	186.195374	140.914917
16.829645	168.323517	143.985748
16.882074	187.702179	141.448975
16.934502	165.500641	129.222870
16.986931	195.713043	138.187408
17.039360	181.808472	145.168304
17.091789	181.217194	138.053894
17.144218	186.767578	144.329071
17.196646	183.715820	154.056549
17.249075	180.969238	140.266418
17.301504	178.489685	141.506195
17.353933	168.876648	147.056580
17.406362	174.846649	148.983002
17.458790	185.279846	148.487091
17.511219	182.628632	143.451691
17.563648	169.925690	145.092010
17.616077	177.249908	134.773254
17.668506	181.388855	143.470764
17.720934	182.380676	141.220093
17.773363	175.495148	142.765045
17.825792	177.192688	143.585205
17.878221	192.298889	158.481598
17.930650	174.064636	148.582458
17.983078	185.031891	146.541595
18.035507	178.031921	154.972076
18.087936	193.977356	143.089294
18.140365	188.426971	144.329071
18.192794	187.129974	143.299103
18.245222	201.072693	151.576996
18.297651	176.429749	138.359070
18.350080	190.525055	151.729584
18.402509	175.228119	135.974884
18.454938	192.432404	142.040253
18.507366	176.830292	136.089325
18.559795	184.993744	137.157440
18.612224	181.427002	148.601532
18.664653	184.898376	142.230988
18.717082	174.121857	135.726929
18.769510	178.356171	144.462585
18.821939	178.070068	147.647858
18.874368	178.775787	144.062042
18.926797	183.467865	145.473480
18.979226	185.680389	142.688751
19.031654	185.470581	141.677856
19.084083	180.644989	135.173798
19.136512	186.080933	136.756897
19.188941	180.740356	137.405396
19.241370	188.426971	143.089294
19.293798	179.386139	140.609741
19.346227	180.835724	143.127441
19.398656	177.478790	146.045685
19.451085	189.571381	137.062073
19.503514	179.634094	135.250092
19.555942	176.258087	142.078400
19.608371	176.982880	144.119263
19.660800	180.454254	144.863129
19.713229	164.508820	142.688751
19.765658	180.912018	145.950317
19.818086	183.296204	155.467987
19.870515	193.996429	148.105621
19.922944	183.715820	142.650604
19.975373	173.645020	148.487091
20.027802	184.974670	134.677887
20.080230	177.688599	160.999298
20.132659	176.753998	134.277344
20.185088	179.672241	137.748718
20.237517	180.644989	147.190094
20.289946	179.862976	138.702393
20.342374	175.991058	143.222809
20.394803	182.895660	143.146515
20.447232	188.121796	133.914948
20.499661	178.413391	144.939423
20.552090	172.729492	139.751434
20.604518	173.969269	135.631561
20.656947	163.154602	132.427216
20.709376	176.258087	124.206543
20.761805	188.579559	146.083832
20.814234	169.429779	141.067505
20.866662	188.217163	148.811340
20.919091	169.372559	141.735077
20.971520	185.031891	132.446289
21.023949	182.876587	141.582489
21.076378	177.917480	147.056580
21.128806	176.563263	146.598816
21.181235	198.650360	145.397186
21.233664	182.971954	137.405396
21.286093	172.710419	148.410797
21.338522	173.377991	147.953033
21.390950	170.593262	139.236450
21.443379	177.364349	146.846771
21.495808	176.734924	134.582520
21.548237	171.871185	142.002106
21.600666	192.584991	142.021179
21.653094	172.176361	137.844086
21.705523	188.312531	140.151978
21.757952	175.495148	147.266388
21.810381	167.942047	137.119293
21.862810	187.129974	147.457123
21.915238	176.029205	153.522491
21.967667	170.001984	138.378143
22.020096	194.625854	151.977539
22.072525	182.151794	148.773193
22.124954	180.339813	153.236389
22.177382	188.732147	153.942108
22.229811	181.026459	142.593384
22.282240	189.933777	153.007507
22.334669	184.364319	141.563416
22.387098	178.050995	132.274628
22.439526	184.249878	134.391785
22.491955	187.301636	143.337250
22.544384	176.830292	143.756866
22.596813	182.209015	135.517120
22.649242	175.437927	141.696930
22.701670	180.892944	140.514374
22.754099	165.367126	136.013031
22.806528	178.050995	155.048370
22.858957	176.677704	143.299103
22.911386	191.535950	147.666931
22.963814	179.557800	142.593384
23.016243	184.612274	140.323639
23.068672	190.277100	151.576996
23.121101	196.189880	142.879486
23.173530	187.168121	147.380829
23.225958	174.999237	137.767792
23.278387	186.748505	136.146545
23.330816	188.808441	149.517059
23.383245	176.105499	144.214630
23.435674	182.209015	153.312683
23.488102	184.307098	141.143799
23.540531	188.274384	143.165588
23.592960	171.546936	137.996674
23.645389	189.704895	149.650574
23.697818	184.326172	147.800446
23.750246	185.508728	148.124695
23.802675	187.301636	149.803162
23.855104	180.091858	151.195526
23.907533	183.372498	148.601532
23.959962	187.454224	148.811340
24.012390	182.342529	146.179199
24.064819	193.042755	148.963928
24.117248	169.372559	130.023956
24.169677	171.623230	138.835907
24.222106	190.067291	148.029327
24.274534	180.854797	130.729675
24.326963	188.694000	137.481689
24.379392	184.402466	140.228271
24.431821	174.369812	132.999420
24.484250	181.274414	139.732361
24.536678	184.574127	142.459869
24.589107	188.846588	153.236389
24.641536	166.721344	134.944916
24.693965	164.070129	145.549774
24.746394	184.803009	142.421722
24.798822	173.015594	156.421661
24.851251	180.664062	146.675110
24.903680	190.315247	153.331757
24.956109	187.377930	143.184662
25.008538	182.533264	149.993896
25.060966	178.527832	135.383606
25.113395	178.318024	143.795013
25.165824	182.304382	148.582458
25.218253	196.895599	155.735016
25.270682	180.892944	137.195587
25.323110	178.470612	138.778687
25.375539	176.200867	138.282776
25.427968	174.503326	135.192871
25.480397	172.119141	138.683319
25.532826	182.819366	148.715973
25.585254	172.615051	145.606995
25.637683	190.811157	157.566071
25.690112	172.653198	142.726898
25.742541	163.841248	144.062042
25.794970	178.833008	151.290894
25.847398	182.838440	145.339966
25.899827	180.969238	137.100220
25.952256	175.704956	140.285492
26.004685	188.655853	150.547028
26.057114	179.767609	150.203705
26.109542	175.971985	153.026581
26.161971	171.070099	135.345459
26.214400	175.952911	152.130127
26.266829	182.189941	145.473480
26.319258	185.146332	152.721405
26.371686	188.312531	145.435333
26.424115	177.402496	142.097473
26.476544	173.301697	130.214691
26.528973	179.195404	146.903992
26.581402	194.129944	145.854950
26.633830	188.674927	150.966644
26.686259	183.258057	139.770508
26.738688	167.140961	135.726929
26.791117	174.827576	135.097504
26.843546	188.446045	154.628754
26.895974	175.704956	146.522522
26.948403	182.399750	138.282776
27.000832	174.064636	139.884949
27.053261	172.805786	138.740540
27.105690	184.726715	147.857666
27.158118	164.680481	133.991241
27.210547	175.724030	140.075684
27.262976	195.426941	143.013000
27.315405	180.282593	149.059296
27.367834	181.674957	147.647858
27.420262	179.424286	134.449005
27.472691	177.135468	157.222748
27.525120	171.508789	157.394409
27.577549	180.416107	134.716034
27.629978	178.508759	140.666962
27.682406	172.595978	143.318176
27.734835	174.503326	143.299103
27.787264	174.427032	143.566132
27.839693	191.764832	147.914886
27.892122	175.437927	155.200958
27.944550	181.331635	142.230988
27.996979	184.345245	141.963959
28.049408	182.456970	133.380890
28.101837	175.361633	133.934021
28.154266	178.775787	136.375427
28.206694	186.824799	149.650574
28.259123	185.966492	143.909454
28.311552	195.941925	152.969360
28.363981	177.917480	139.732361
28.416410	175.476074	139.331818
28.468838	185.947418	152.473450
28.521267	173.568726	142.765045
28.573696	170.269012	143.833160
28.626125	200.519562	149.364471
28.678554	182.571411	164.775848
28.730982	179.996490	144.577026
28.783411	196.247101	134.010315
28.835840	186.100006	148.639679
28.888269	171.871185	141.944885
28.940698	166.664124	150.032043
28.993126	164.833069	137.939453
29.045555	177.192688	139.751434
29.097984	180.969238	135.784149
29.150413	190.467834	146.980286
29.202842	170.688629	148.830414
29.255270	162.353516	136.146545
29.307699	172.595978	133.323669
29.360128	182.456970	140.247345
29.412557	181.751251	147.666931
29.464986	174.064636	139.675140
29.517414	173.072815	148.715973
29.569843	183.620453	148.620605
29.622272	183.124542	153.808594
29.674701	187.492371	143.413544
29.727130	183.105469	144.500732
29.779558	176.200867	144.958496
29.831987	178.852081	142.345428
29.884416	176.868439	144.882202
29.936845	179.328918	142.498016
29.989274	173.606873	145.568848
30.041702	183.219910	138.168335
30.094131	172.977448	138.301849
30.146560	191.783905	146.732330
30.198989	175.304413	135.135651
30.251418	176.944733	136.547089
30.303846	190.277100	144.672394
30.356275	183.773041	140.342712
30.408704	179.615021	147.686005
30.461133	175.209045	143.928528
30.513562	186.271667	144.634247
30.565990	170.001984	139.598846
30.618419	191.707611	141.620636
30.670848	192.642212	150.203705
30.723277	178.604126	143.833160
30.775706	180.950165	142.021179
30.828134	177.879333	137.062073
30.880563	196.857452	142.688751
30.932992	174.045563	137.825012
30.985421	179.328918	147.438049
31.037850	189.399719	147.533417
31.090278	201.282501	153.732300
31.142707	183.563232	143.699646
31.195136	179.748535	138.015747
31.247565	181.560516	141.448975
31.299994	181.922913	145.168304
31.352422	184.192657	145.416260
31.404851	179.767609	143.547058
31.457280	172.348022	134.525299
31.509709	176.353455	137.405396
31.562138	178.318024	143.260956
31.614566	177.402496	146.026611
31.666995	181.808472	155.563354
31.719424	180.492401	143.051147
31.771853	173.263550	142.536163
31.824282	192.127228	140.209198
31.876710	185.699463	137.939453
31.929139	182.991028	145.111084
31.981568	181.865692	154.266357
32.033997	176.277161	149.097443
32.086426	172.977448	144.138336
32.138854	178.012848	148.181915
32.191283	184.078217	150.012970
32.243712	177.402496	138.626099
32.296141	173.873901	136.814117
32.348570	200.748444	155.220032
32.400998	192.852020	158.576965
32.453427	191.822052	147.762299
32.505856	174.369812	137.920380
32.558285	193.805695	141.143799
32.610714	172.710419	139.999390
32.663142	180.721283	143.070221
32.715571	185.890198	152.893066
32.768000	185.985565	136.413574
32.820429	176.239014	132.522583
32.872858	170.097351	133.800507
32.925286	177.345276	143.508911
32.977715	182.266235	145.854950
33.030144	194.377899	142.116547
33.082573	186.462402	139.904022
33.135002	183.486938	140.914917
33.187430	170.574188	148.277283
33.239859	183.162689	149.135590
33.292288	172.576904	141.487122
33.344717	173.664093	135.345459
33.397146	187.358856	151.748657
33.449574	178.241730	141.963959
33.502003	180.053711	136.814117
33.554432	175.399780	134.468079
33.606861	188.751221	141.048431
33.659290	185.279846	144.710541
33.711718	190.372467	136.795044
33.764147	163.764954	134.792328
33.816576	185.947418	142.478943
33.869005	170.860291	145.645142
33.921434	184.135437	135.116577
33.973862	174.789429	139.522552
34.026291	173.225403	138.549805
34.078720	185.298920	149.917603
34.131149	178.375244	142.765045
34.183578	180.511475	143.451691
34.236006	173.435211	144.424438
34.288435	198.440552	149.555206
34.340864	166.931152	131.206512
34.393293	178.871155	138.530731
34.445722	159.835815	130.176544
34.498150	174.198151	142.211914
34.550579	193.862915	136.775970
34.603008	175.952911	137.443542
34.655437	173.778534	132.236481
34.707866	179.100037	149.497986
34.760294	185.279846	140.190125
34.812723	183.372498	145.359039
34.865152	185.394287	140.857697
34.917581	186.119080	145.950317
34.970010	164.985657	150.642395
35.022438	184.116364	141.468048
35.074867	180.130005	136.241913
35.127296	186.614990	144.672394
35.179725	165.519714	131.282806
35.232154	171.642303	140.991211
35.284582	178.775787	139.980316
35.337011	180.816650	142.688751
35.389440	184.440613	142.402649
35.441869	175.762177	142.917633
35.494298	178.394318	139.369965
35.546726	174.655914	131.149292
35.599155	182.895660	145.359039
35.651584	180.416107	144.138336
35.704013	189.304352	142.765045
35.756442	186.977386	130.062103
35.808870	169.353485	141.181946
35.861299	170.288086	138.282776
35.913728	180.301666	131.320953
35.966157	196.189880	147.972107
36.018586	174.789429	138.912201
36.071014	176.963806	144.176483
36.123443	184.764862	143.394470
36.175872	178.127289	127.677917
36.228301	169.563293	148.696899
36.280730	181.751251	139.999390
36.333158	187.263489	152.873993
36.385587	192.737579	154.285431
36.438016	184.726715	138.683319
36.490445	169.868469	138.187408
36.542874	180.053711	146.026611
36.595302	186.843872	126.209259
36.647731	186.977386	137.329102
36.700160	181.541443	129.699707
36.752589	173.282623	145.492554
36.805018	175.399780	141.677856
36.857446	196.990967	141.258240
36.909875	169.601440	139.217377
36.962304	182.800293	144.214630
37.014733	188.179016	148.048401
37.067162	176.830292	141.716003
37.119590	194.244385	142.784119
37.172019	183.315277	143.585205
37.224448	179.176331	139.961243
37.276877	157.985687	135.936737
37.329306	170.669556	142.211914
37.381734	177.383423	141.353607
37.434163	177.459717	139.522552
37.486592	182.647705	140.419006
37.539021	166.168213	143.127441
37.591450	182.952881	146.942139
37.643878	182.895660	142.974854
37.696307	186.328888	145.549774
37.748736	186.882019	136.680603
37.801165	191.097260	144.138336
37.853594	166.606903	141.353607
37.906022	182.418823	144.176483
37.958451	164.279938	131.835937
38.010880	184.230804	146.541595
38.063309	181.198120	138.263702
38.115738	172.462463	136.413574
38.168166	169.296265	144.290924
38.220595	180.416107	143.413544
38.273024	180.072784	153.903961
38.325453	181.884766	141.525269
38.377882	184.612274	147.514343
38.430310	170.001984	142.307281
38.482739	183.048248	140.037537
38.535168	167.980194	137.042999
38.587597	170.116425	143.928528
38.640026	183.467865	140.419006
38.692454	200.672150	150.260925
38.744883	188.312531	152.435303
38.797312	174.636841	138.607025
38.849741	175.209045	137.329102
38.902170	204.849243	145.683289
38.954598	185.222626	126.934052
39.007027	193.862915	148.620605
39.059456	179.290771	134.754181
39.111885	183.963776	147.457123
39.164314	175.075531	141.849518
39.216742	178.146362	143.280029
39.269171	169.525146	141.696930
39.321600	182.018280	139.198303
39.374029	188.293457	139.446259
39.426458	160.350800	126.342773
39.478886	192.317963	148.620605
39.531315	172.271729	132.675171
39.583744	186.367035	142.135620
39.636173	172.061920	141.201019
39.688602	180.797577	139.865875
39.741030	178.146362	141.124725
39.793459	167.121887	154.266357
39.845888	183.143616	139.122009
39.898317	182.209015	140.724182
39.950746	175.704956	144.996643
40.003174	182.285309	149.116516
40.055603	186.500549	146.083832
40.108032	191.154480	147.056580
40.160461	178.222656	137.081146
40.212890	167.083740	146.522522
40.265318	172.996521	142.307281
40.317747	164.623260	137.062073
40.370176	189.075470	142.841339
40.422605	179.729462	141.906738
40.475034	170.421600	135.345459
40.527462	191.841125	149.555206
40.579891	187.034607	145.053864
40.632320	190.753937	139.408112
40.684749	173.320770	151.119232
40.737178	170.516968	144.767761
40.789606	176.029205	139.846802
40.842035	163.326263	130.596161
40.894464	180.473328	136.032104
40.946893	180.549622	144.386292
40.999322	192.146301	149.097443
41.051750	173.568726	132.904053
41.104179	186.748505	143.585205
41.156608	180.377960	150.833130
41.209037	170.288086	147.838593
41.261466	181.884766	132.656097
41.313894	177.497864	145.111084
41.366323	171.089172	136.890411
41.418752	181.331635	143.127441
41.471181	166.358948	133.190155
41.523610	176.200867	142.879486
41.576038	175.018311	140.800476
41.628467	171.279907	135.002136
41.680896	178.565979	134.239197
41.733325	166.110992	144.329071
41.785754	178.127289	151.691437
41.838182	193.443298	143.470764
41.890611	181.732178	148.372650
41.943040	169.353485	140.781403
41.995469	179.347992	141.677856
42.047898	175.609589	150.909424
42.100326	173.854828	147.094727
42.152755	184.326172	134.468079
42.205184	182.342529	142.860413
42.257613	179.367065	137.748718
42.310042	179.843903	140.190125
42.362470	186.195374	151.119232
42.414899	165.233612	145.187378
42.467328	180.492401	133.838654
42.519757	180.702209	135.345459
42.572186	177.288055	136.413574
42.624614	173.530579	145.015717
42.677043	185.356140	147.705078
42.729472	185.699463	145.645142
42.781901	173.892975	141.620636
42.834330	174.942017	144.023895
42.886758	185.585022	141.963959
42.939187	159.378052	133.495331
42.991616	179.042816	140.552521
43.044045	185.775757	144.138336
43.096474	177.421570	139.389038
43.148902	181.064606	146.045685
43.201331	180.110931	148.448944
43.253760	176.563263	138.969421
43.306189	172.920227	136.375427
43.358618	166.511536	136.299133
43.411046	163.669586	134.315491
43.463475	172.443390	147.151947
43.515904	180.206299	141.773224
43.568333	185.375214	144.157410
43.620762	174.579620	139.522552
43.673190	173.072815	133.228302
43.725619	182.228088	135.574341
43.778048	177.860260	137.538910
43.830477	188.484192	142.002106
43.882906	180.530548	135.269165
43.935334	188.293457	147.037506
43.987763	188.369751	136.966705
44.040192	169.773102	149.383545
44.092621	169.086456	133.914948
44.145050	170.936584	142.402649
44.197478	183.238983	141.334534
44.249907	179.691315	145.721436
44.302336	179.176331	149.612427
44.354765	172.939301	138.282776
44.407194	181.922913	137.138367
44.459622	173.988342	133.113861
44.512051	178.489685	136.356354
44.564480	171.432495	145.912170
44.616909	188.465118	150.146484
44.669338	175.437927	136.718750
44.721766	180.320740	144.824982
44.774195	177.936554	138.797760
44.826624	168.647766	145.053864
44.879053	186.443329	139.408112
44.931482	188.808441	139.999390
44.983910	175.380707	143.585205
45.036339	166.912079	138.092041
45.088768	177.860260	138.454437
45.141197	172.653198	134.849548
45.193626	186.729431	154.075623
45.246054	181.331635	141.296387
45.298483	177.268982	144.348145
45.350912	178.546906	140.342712
45.403341	176.029205	144.233704
45.455770	182.933807	144.596100
45.508198	167.846680	149.192810
45.560627	170.860291	136.604309
45.613056	181.636810	144.233704
45.665485	176.200867	143.489838
45.717914	191.631317	152.683258
45.770342	179.157257	128.669739
45.822771	191.516876	140.476227
45.875200	173.778534	146.789551
45.927629	179.271698	128.345490
45.980058	190.868378	138.301849
46.032486	166.606903	130.405426
46.084915	185.947418	145.130157
46.137344	168.914795	131.664276
46.189773	172.767639	148.525238
46.242202	170.326233	135.383606
46.294630	181.865692	149.021149
46.347059	183.620453	139.122009
46.399488	190.467834	143.985748
46.451917	174.255371	146.923065
46.504346	181.941986	136.718750
46.556774	180.206299	142.707825
46.609203	176.792145	147.972107
46.661632	176.696777	146.579742
46.714061	165.958405	147.018433
46.766490	182.704926	140.209198
46.818918	168.361664	145.072937
46.871347	186.710358	146.484375
46.923776	176.219940	138.454437
46.976205	185.317993	133.609772
47.028634	165.634155	143.680573
47.081062	177.173615	151.023865
47.133491	175.151825	149.650574
47.185920	190.734863	137.062073
47.238349	184.860229	143.146515
47.290778	167.407990	138.053894
47.343206	171.127319	135.345459
47.395635	168.895721	134.639740
47.448064	169.105530	129.566193
47.500493	172.710419	142.917633
47.552922	183.849335	128.726959
47.605350	170.574188	148.448944
47.657779	172.157288	139.179230
47.710208	178.127289	131.340027
47.762637	169.448853	146.064758
47.815066	181.541443	142.612457
47.867494	180.950165	145.683289
47.919923	175.895691	135.726929
47.972352	163.555145	136.165619
48.024781	178.604126	139.923096
48.077210	168.209076	141.525269
48.129638	175.285339	151.176453
48.182067	171.184540	139.522552
48.234496	189.704895	134.868622
48.286925	184.307098	144.729614
48.339354	181.922913	143.032074
48.391782	175.571442	133.895874
48.444211	178.241730	148.925781
48.496640	164.871216	142.593384
48.549069	168.933868	147.075653
48.601498	168.628693	144.348145
48.653926	184.783936	141.067505
48.706355	188.179016	146.007538
48.758784	165.843964	142.993927
48.811213	180.797577	143.318176
48.863642	189.628601	137.805939
48.916070	180.339813	132.122040
48.968499	160.446167	131.454468
49.020928	197.505951	154.857635
49.073357	186.004639	137.119293
49.125786	172.348022	143.451691
49.178214	176.677704	139.579773
49.230643	171.070099	131.149292
49.283072	165.061951	131.053925
49.335501	182.437897	150.108337
49.387930	175.991058	137.786865
49.440358	182.209015	139.675140
49.492787	184.535980	139.942169
49.545216	198.535919	158.863068
49.597645	177.421570	143.089294
49.650074	172.767639	146.331787
49.702502	167.522430	140.762329
49.754931	175.037384	148.143768
49.807360	183.696747	144.329071
49.859789	182.285309	141.582489
49.912218	168.361664	143.413544
49.964646	180.225372	136.833191
50.017075	173.397064	140.495300
50.069504	186.843872	148.696899
50.121933	163.803101	137.157440
50.174362	180.435181	137.786865
50.226790	184.154510	136.146545
50.279219	173.664093	136.547089
50.331648	177.631378	135.250092
50.384077	179.462433	140.476227
50.436506	167.369843	134.620667
50.488934	186.271667	151.348114
50.541363	172.863007	149.440765
50.593792	162.944794	137.538910
50.646221	166.549683	145.874023
50.698650	172.424316	144.176483
50.751078	184.364319	148.162842
50.803507	161.018372	128.231049
50.855936	176.410675	141.925812
50.908365	175.361633	136.356354
50.960794	176.391602	146.369934
51.013222	170.383453	141.201019
51.065651	193.271637	147.209167
51.118080	178.871155	142.135620
51.170509	173.568726	143.947601
51.222938	177.974701	149.707794
51.275366	176.925659	126.323700
51.327795	174.694061	139.694214
51.380224	166.530609	139.808655
51.432653	165.920258	132.999420
51.485082	187.492371	136.451721
51.537510	193.195343	146.331787
51.589939	171.089172	136.165619
51.642368	179.119110	142.059326
51.694797	180.664062	136.508942
51.747226	178.470612	139.160156
51.799654	184.707642	149.669647
51.852083	176.811218	148.487091
51.904512	186.481476	148.353577
51.956941	168.514252	132.217407
52.009370	164.127350	127.410889
52.061798	190.544128	154.666901
52.114227	174.541473	144.519806
52.166656	189.476013	143.356323
52.219085	185.585022	139.808655
52.271514	173.759460	137.367249
52.323942	174.808502	140.132904
52.376371	179.328918	136.203766
52.428800	180.263519	149.059296
52.481229	167.579651	136.737823
52.533658	179.958344	140.266418
52.586086	172.176361	155.010223
52.638515	191.631317	141.849518
52.690944	192.394257	152.359009
52.743373	181.331635	134.201050
52.795802	176.105499	156.764984
52.848230	172.080994	135.974884
52.900659	173.568726	145.721436
52.953088	169.563293	136.928558
53.005517	174.446106	144.138336
53.057946	179.557800	135.459900
53.110374	194.377899	152.816772
53.162803	181.007385	139.198303
53.215232	165.481567	144.958496
53.267661	173.416138	147.972107
53.320090	169.067383	133.171082
53.372518	186.214447	139.007568
53.424947	166.435242	130.958557
53.477376	189.876556	158.481598
53.529805	176.677704	139.369965
53.582234	170.440674	138.912201
53.634662	178.203583	145.130157
53.687091	171.184540	128.307343
53.739520	181.789398	142.173767
53.791949	171.356201	132.026672
53.844378	176.696777	133.991241
53.896806	184.249878	135.116577
53.949235	174.217224	137.310028
54.001664	166.759491	151.081085
54.054093	173.377991	136.661530
54.106522	173.797607	148.220062
54.158950	174.617767	132.656097
54.211379	192.279816	152.091980
54.263808	172.786713	141.334534
54.316237	174.827576	141.468048
54.368666	166.339874	141.048431
54.421094	170.593262	139.026642
54.473523	180.187225	135.440826
54.525952	191.173553	142.154694
54.578381	183.219910	138.301849
54.630810	185.127258	134.162903
54.683238	189.132690	148.773193
54.735667	180.206299	141.544342
54.788096	182.380676	135.021210
54.840525	175.437927	145.511627
54.892954	174.865723	143.737793
54.945382	183.773041	140.609741
54.997811	176.734924	135.440826
55.050240	185.050964	146.522522
55.102669	185.470581	142.135620
55.155098	184.383392	151.748657
55.207526	173.702240	138.015747
55.259955	188.503265	147.495270
55.312384	186.328888	144.977570
55.364813	171.642303	140.495300
55.417242	176.429749	138.797760
55.469670	191.287994	153.942108
55.522099	179.672241	136.528015
55.574528	185.985565	139.694214
55.626957	198.650360	157.470703
55.679386	179.805756	134.353638
55.731814	182.247162	146.903992
55.784243	172.271729	145.511627
55.836672	187.072754	145.778656
55.889101	184.268951	141.487122
55.941530	169.658661	143.756866
55.993958	159.969330	136.947632
56.046387	183.467865	152.244568
56.098816	178.127289	138.969421
56.151245	177.783966	141.468048
56.203674	176.811218	143.871307
56.256102	167.388916	143.852234
56.308531	174.522400	142.555237
56.360960	170.707703	139.274597
56.413389	178.279877	132.446289
56.465818	158.920288	126.247406
56.518246	179.386139	138.492584
56.570675	159.797668	137.615204
56.623104	168.781281	155.067444
56.675533	163.764954	134.696960
56.727962	173.702240	138.607025
56.780390	166.835785	137.271881
56.832819	171.451569	145.320892
56.885248	173.206329	152.873993
56.937677	176.410675	143.299103
56.990106	160.007477	144.424438
57.042534	175.323486	141.239166
57.094963	174.064636	147.094727
57.147392	173.263550	138.053894
57.199821	181.427002	151.729584
57.252250	164.928436	144.805908
57.304678	176.792145	135.345459
57.357107	175.971985	146.026611
57.409536	175.437927	146.427155
57.461965	172.767639	145.416260
57.514394	191.173553	141.372681
57.566822	174.179077	139.007568
57.619251	180.110931	151.786804
57.671680	184.745789	142.135620
57.724109	184.307098	144.081116
57.776538	180.072784	146.770477
57.828966	185.317993	145.187378
57.881395	179.653168	143.871307
57.933824	174.846649	142.459869
57.986253	187.683105	135.631561
58.038682	182.094574	138.263702
58.091110	163.688660	137.004852
58.143539	192.070007	148.086548
58.195968	184.993744	149.765015
58.248397	174.140930	127.849579
58.300826	179.748535	141.468048
58.353254	183.181763	144.500732
58.405683	173.587799	132.675171
58.458112	166.225433	138.206482
58.510541	177.421570	134.429932
58.562970	174.942017	146.999359
58.615398	182.018280	140.438080
58.667827	172.500610	141.487122
58.720256	184.860229	138.092041
58.772685	172.786713	151.672363
58.825114	174.160004	136.413574
58.877542	173.988342	149.154663
58.929971	177.936554	143.165588
58.982400	164.985657	141.773224
59.034829	169.086456	140.113831
59.087258	165.328979	139.999390
59.139686	169.239044	135.498047
59.192115	179.500580	145.072937
59.244544	170.688629	148.925781
59.296973	197.792053	154.705048
59.349402	176.544189	145.282745
59.401830	171.356201	135.326385
59.454259	169.734955	142.841339
59.506688	183.486938	146.293640
59.559117	179.939270	140.419006
59.611546	173.301697	139.751434
59.663974	168.209076	140.762329
59.716403	165.023804	137.424469
59.768832	175.628662	134.353638
59.821261	170.326233	138.282776
59.873690	175.323486	145.015717
59.926118	175.228119	144.596100
59.978547	192.165375	144.062042
60.030976	176.639557	144.691467
60.083405	177.154541	147.838593
60.135834	171.318054	139.350891
60.188262	168.418884	142.097473
60.240691	186.328888	150.318146
60.293120	176.029205	146.617889
60.345549	174.503326	140.094757
60.397978	170.593262	142.116547
60.450406	159.721375	133.609772
60.502835	162.487030	135.726929
60.555264	189.399719	150.089264
60.607693	169.162750	142.211914
60.660122	172.519684	140.609741
60.712550	179.939270	137.672424
60.764979	176.906586	134.181976
60.817408	178.394318	138.950348
60.869837	171.852112	131.397247
60.922266	181.312561	140.609741
60.974694	169.601440	133.075714
61.027123	188.484192	146.312714
61.079552	183.219910	144.691467
61.131981	168.972015	129.623413
61.184410	179.882050	149.211884
61.236838	187.225342	144.824982
61.289267	173.511505	145.473480
61.341696	181.541443	146.064758
61.394125	172.557831	142.631531
61.446554	178.813934	148.620605
61.498982	174.732208	152.301788
61.551411	193.099976	140.228271
61.603840	172.214508	133.876801
61.656269	171.279907	137.119293
61.708698	174.999237	149.040222
61.761126	185.661316	146.617889
61.813555	173.339844	149.497986
61.865984	179.824829	139.179230
61.918413	170.135498	144.386292
61.970842	185.012817	149.936676
62.023270	168.991089	140.399933
62.075699	160.770416	134.162903
62.128128	165.901184	134.735107
62.180557	173.606873	142.707825
62.232986	199.279785	145.454407
62.285414	179.138184	139.617920
62.337843	169.086456	135.402679
62.390272	168.590546	139.465332
62.442701	186.710358	136.795044
62.495130	176.010132	146.121979
62.547558	183.486938	144.405365
62.599987	177.841187	134.868622
62.652416	169.525146	139.331818
62.704845	171.585083	136.299133
62.757274	168.285370	143.527985
62.809702	168.685913	136.089325
62.862131	172.748566	148.429871
62.914560	179.405212	139.236450
62.966989	170.040131	136.280060
63.019418	184.516907	151.519775
63.071846	179.004669	142.860413
63.124275	177.879333	143.241882
63.176704	172.843933	139.675140
63.229133	183.944702	136.814117
63.281562	177.326202	142.707825
63.333990	177.211761	145.664215
63.386419	185.070038	147.476196
63.438848	168.037415	134.925842
63.491277	174.083710	140.056610
63.543706	176.162720	132.617950
63.596134	183.811188	145.015717
63.648563	168.476105	129.508972
63.700992	176.467896	150.547028
63.753421	179.939270	145.282745
63.805850	171.375275	141.105652
63.858278	171.833038	141.372681
63.910707	173.606873	140.323639
63.963136	165.901184	130.443573
64.015565	171.661377	133.647919
64.067994	172.309875	128.479004
64.120422	171.489716	144.538879
64.172851	162.944794	141.983032
64.225280	176.982880	148.067474
64.277709	177.345276	142.669678
64.330138	179.271698	138.359070
64.382566	172.443390	133.323669
64.434995	179.901123	144.577026
64.487424	191.421509	137.348175
64.539853	175.228119	138.511658
64.592282	174.922943	138.816833
64.644710	174.388885	137.290955
64.697139	186.729431	144.443512
64.749568	167.121887	141.906738
64.801997	185.604095	158.004761
64.854426	184.898376	157.184601
64.906854	172.290802	133.705139
64.959283	170.688629	140.075684
65.011712	179.557800	140.056610
65.064141	178.260803	139.713287
65.116570	177.021027	147.132874
65.168998	182.304382	152.549744
65.221427	183.410645	138.454437
65.273856	174.045563	145.530701
65.326285	191.211700	145.092010
65.378714	167.579651	131.149292
65.431142	160.274506	140.113831
65.483571	167.541504	127.944946
65.536000	158.443451	138.759613
65.588429	184.249878	134.201050
65.640858	175.113678	136.852264
65.693286	159.854889	134.925842
65.745715	174.026489	139.751434
65.798144	155.582428	127.391815
65.850573	180.149078	136.947632
65.903002	186.862946	140.953064
65.955430	175.285339	133.018494
66.007859	174.312592	136.890411
66.060288	171.165466	147.800446
66.112717	178.375244	149.002075
66.165146	185.012817	139.694214
66.217574	170.898437	142.803192
66.270003	174.217224	142.288208
66.322432	182.571411	151.062012
66.374861	172.672272	139.694214
66.427290	176.467896	144.004822
66.479718	171.928406	132.293701
66.532147	172.462463	149.669647
66.584576	204.010010	146.617889
66.637005	176.124573	140.533447
66.689434	183.811188	146.751404
66.741862	186.920166	140.743256
66.794291	175.609589	142.898560
66.846720	177.879333	139.503479
66.899149	176.887512	150.737762
66.951578	166.797638	131.130219
67.004006	172.176361	141.563416
67.056435	176.982880	138.301849
67.108864	181.903839	143.775940
67.161293	176.753998	139.083862
67.213722	169.353485	134.162903
67.266150	177.631378	139.026642
67.318579	173.263550	137.557983
67.371008	170.936584	135.364532
67.423437	172.863007	131.664276
67.475866	177.211761	140.399933
67.528294	169.849396	138.378143
67.580723	178.222656	133.132935
67.633152	196.399689	144.309998
67.685581	173.969269	139.369965
67.738010	180.892944	144.958496
67.790438	170.211792	142.230988
67.842867	178.394318	140.285492
67.895296	188.217163	144.348145
67.947725	169.525146	131.511688
68.000154	195.560455	140.895844
68.052582	168.399811	141.983032
68.105011	170.955658	137.386322
68.157440	176.277161	144.519806
68.209869	176.258087	136.966705
68.262298	171.546936	138.511658
68.314726	170.688629	142.211914
68.367155	160.102844	143.947601
68.419584	162.906647	143.070221
68.472013	183.467865	139.522552
68.524442	165.920258	141.620636
68.576870	174.236298	137.271881
68.629299	182.399750	127.143860
68.681728	163.040161	146.484375
68.734157	174.179077	132.694244
68.786586	166.721344	138.912201
68.839014	172.233582	133.171082
68.891443	169.448853	129.508972
68.943872	191.116333	140.953064
68.996301	173.110962	141.429901
69.048730	175.457001	137.405396
69.101158	171.394348	139.331818
69.153587	178.604126	143.413544
69.206016	188.274384	145.244598
69.258445	169.353485	141.296387
69.310874	163.192749	133.132935
69.363302	172.958374	134.067535
69.415731	183.296204	150.699615
69.468160	187.759399	142.040253
69.520589	175.685883	139.923096
69.573018	180.377960	142.917633
69.625446	175.552368	146.026611
69.677875	165.386200	140.266418
69.730304	185.642242	145.034790
69.782733	167.427063	140.361786
69.835162	163.555145	139.122009
69.887590	175.514221	139.160156
69.940019	167.694092	134.277344
69.992448	164.680481	133.304596
70.044877	186.939240	131.435394
70.097306	185.680389	156.421661
70.149734	183.315277	146.694183
70.202163	174.617767	142.631531
70.254592	186.691284	144.996643
70.307021	169.410706	139.446259
70.359450	168.075562	137.786865
70.411878	188.808441	140.724182
70.464307	180.091858	145.702362
70.516736	183.563232	138.492584
70.569165	176.486969	144.119263
70.621594	178.527832	143.585205
70.674022	174.903870	133.323669
70.726451	178.852081	145.187378
70.778880	170.364380	135.898590
70.831309	170.936584	150.508881
70.883738	173.225403	137.710571
70.936166	164.375305	137.157440
70.988595	199.985504	145.225525
71.041024	187.206268	139.961243
71.093453	172.271729	130.023956
71.145882	180.664062	134.296417
71.198310	185.966492	150.890350
71.250739	183.277130	152.282715
71.303168	176.124573	139.541626
71.355597	174.026489	150.508881
71.408026	174.827576	132.369995
71.460454	178.356171	127.067566
71.512883	164.737701	133.552551
71.565312	177.307129	142.593384
71.617741	186.843872	136.680603
71.670170	185.985565	149.631500
71.722598	188.388824	142.917633
71.775027	178.508759	140.552521
71.827456	182.132721	136.661530
71.879885	177.402496	131.931305
71.932314	193.443298	137.691498
71.984742	175.437927	136.680603
72.037171	182.094574	138.492584
72.089600	175.285339	137.081146
72.142029	193.805695	145.168304
72.194458	171.661377	139.198303
72.246886	182.456970	144.519806
72.299315	192.623138	145.454407
72.351744	171.089172	152.645111
72.404173	156.688690	133.914948
72.456602	179.157257	135.116577
72.509030	178.718567	137.252808
72.561459	168.647766	142.822266
72.613888	193.309784	152.587891
72.666317	201.396942	144.748688
72.718746	193.309784	155.448914
72.771174	176.315308	136.356354
72.823603	177.955627	141.391754
72.876032	173.702240	134.334564
72.928461	186.996460	142.707825
72.980890	181.236267	130.271912
73.033318	157.928467	141.735077
73.085747	170.269012	146.694183
73.138176	165.195465	129.184723
73.190605	175.800323	141.506195
73.243034	188.941956	146.045685
73.295462	169.239044	137.386322
73.347891	181.179047	154.380798
73.400320	188.026428	140.190125
73.452749	168.266296	144.805908
73.505178	164.661407	128.669739
73.557606	167.770386	123.806000
73.610035	180.244446	149.650574
73.662464	170.650482	140.399933
73.714893	168.743134	138.854980
73.767322	189.533234	140.419006
73.819750	176.582336	130.958557
73.872179	179.023743	141.773224
73.924608	189.895630	142.669678
73.977037	166.110992	133.171082
74.029466	174.160004	145.072937
74.081894	163.173676	127.582550
74.134323	174.217224	135.402679
74.186752	179.786682	144.863129
74.239181	162.773132	132.617950
74.291610	167.770386	136.528015
74.344038	174.350739	142.402649
74.396467	173.110962	147.686005
74.448896	169.487000	139.255524
74.501325	174.942017	130.977631
74.553754	190.944672	139.198303
74.606182	175.781250	133.457184
74.658611	190.830231	135.059357
74.711040	174.026489	150.871277
74.763469	168.609619	135.364532
74.815898	173.969269	147.876740
74.868326	162.334442	135.478973
74.920755	175.800323	144.767761
74.973184	166.511536	133.686066
75.025613	179.882050	149.803162
75.078042	181.140900	141.716003
75.130470	166.473389	133.228302
75.182899	183.925629	142.574310
75.235328	168.781281	137.176514
75.287757	171.432495	141.258240
75.340186	184.040070	146.923065
75.392614	181.655884	139.522552
75.445043	170.440674	138.988495
75.497472	173.225403	141.334534
75.549901	177.879333	155.715942
75.602330	176.048279	132.942200
75.654758	174.560547	133.609772
75.707187	176.200867	134.143829
75.759616	172.958374	132.369995
75.812045	167.427063	141.983032
75.864474	173.263550	136.642456
75.916902	189.933777	148.410797
75.969331	174.903870	139.503479
76.021760	180.492401	133.457184
76.074189	175.724030	139.312744
76.126618	193.061829	153.408051
76.179046	181.674957	163.249969
76.231475	173.740387	136.566162
76.283904	183.258057	131.397247
76.336333	177.288055	136.814117
76.388762	189.437866	150.737762
76.441190	180.778503	147.190094
76.493619	185.413361	134.620667
76.546048	170.764923	142.402649
76.598477	176.830292	135.631561
76.650906	171.871185	134.105682
76.703334	171.089172	140.876770
76.755763	173.931122	144.309998
76.808192	184.459686	147.838593
76.860621	169.391632	140.590668
76.913050	164.756775	134.658813
76.965478	181.350708	138.339996
77.017907	180.149078	144.615173
77.070336	175.247192	148.811340
77.122765	172.119141	140.571594
77.175194	185.718536	142.955780
77.227622	170.288086	138.301849
77.280051	182.647705	146.675110
77.332480	179.252625	143.070221
77.384909	164.413452	129.966736
77.437338	175.895691	140.495300
77.489766	156.974792	132.427216
77.542195	188.922882	144.176483
77.594624	176.353455	136.890411
77.647053	162.315369	139.694214
77.699482	172.710419	128.307343
77.751910	175.151825	136.089325
77.804339	167.102814	130.043030
77.856768	173.015594	142.288208
77.909197	190.296173	145.225525
77.961626	174.560547	130.920410
78.014054	189.399719	136.241913
78.066483	174.713135	128.326416
78.118912	180.339813	141.754150
78.171341	159.950256	138.072968
78.223770	177.001953	138.854980
78.276198	194.396973	158.081055
78.328627	170.440674	138.282776
78.381056	172.863007	126.571655
78.433485	173.397064	141.601562
78.485914	170.536041	142.116547
78.538342	174.751282	133.132935
78.590771	180.950165	139.656067
78.643200	165.748596	128.765106
78.695629	178.966522	136.337280
78.748058	181.598663	143.814087
78.800486	182.876587	142.421722
78.852915	165.042877	138.740540
78.905344	173.053741	145.149231
78.957773	183.792114	149.078369
79.010202	160.865784	130.443573
79.062630	178.127289	145.568848
79.115059	180.759430	146.007538
79.167488	187.339783	149.154663
79.219917	172.386169	134.277344
79.272346	178.375244	138.473511
79.324774	172.538757	139.255524
79.377203	180.358887	151.615143
79.429632	169.830322	142.021179
79.482061	186.824799	131.244659
79.534490	166.282654	135.707855
79.586918	180.931091	131.072998
79.639347	176.925659	129.737854
79.691776	176.868439	136.756897
79.744205	170.021057	137.195587
79.796634	172.958374	132.637024
79.849062	175.132751	143.394470
79.901491	180.053711	148.696899
79.953920	171.031952	135.478973
80.006349	186.004639	147.590637
80.058778	181.369781	141.029358
80.111206	181.026459	135.574341
80.163635	168.514252	139.560699
80.216064	179.557800	128.154755
80.268493	174.942017	135.955811
80.320922	183.010101	132.484436
80.373350	162.448883	128.574371
80.425779	172.538757	151.977539
80.478208	172.042847	139.617920
80.530637	167.446136	134.696960
80.583066	166.568756	142.269135
80.635494	180.034637	137.634277
80.687923	177.173615	142.517090
80.740352	158.672333	136.032104
80.792781	179.157257	131.645203
80.845210	179.805756	145.778656
80.897638	169.754028	131.168365
80.950067	194.625854	139.236450
81.002496	176.639557	143.108368
81.054925	182.971954	143.871307
81.107354	177.440643	147.857666
81.159782	180.473328	135.536194
81.212211	161.437988	128.231049
81.264640	166.473389	138.854980
81.317069	182.094574	132.045746
81.369498	182.514191	134.849548
81.421926	178.833008	137.729645
81.474355	177.326202	138.511658
81.526784	165.653229	135.784149
81.579213	167.293549	143.795013
81.631642	171.928406	142.555237
81.684070	181.770325	139.904022
81.736499	174.579620	134.487152
81.788928	174.980164	141.258240
81.841357	180.473328	139.617920
81.893786	172.004700	134.391785
81.946214	167.789459	130.195618
81.998643	175.037384	147.933960
82.051072	174.388885	132.560730
82.103501	172.271729	131.721497
82.155930	169.372559	140.857697
82.208358	170.402527	138.721466
82.260787	170.536041	133.686066
82.313216	174.369812	138.683319
82.365645	184.402466	149.974823
82.418074	174.350739	131.664276
82.470502	183.105469	134.391785
82.522931	178.089142	133.380890
82.575360	179.901123	141.315460
82.627789	169.982910	133.819580
82.680218	165.176392	135.860443
82.732646	170.612335	144.138336
82.785075	167.732239	135.173798
82.837504	186.119080	144.882202
82.889933	176.944733	138.568878
82.942362	168.685913	131.816864
82.994790	184.440613	147.666931
83.047219	178.565979	144.233704
83.099648	165.977478	128.536224
83.152077	183.906555	134.506226
83.204506	181.655884	141.601562
83.256934	172.348022	133.304596
83.309363	174.770355	142.974854
83.361792	184.421539	147.800446
83.414221	175.895691	144.653320
83.466650	174.560547	144.348145
83.519078	185.546875	140.151978
83.571507	176.906586	141.658783
83.623936	174.427032	138.053894
83.676365	180.053711	135.974884
83.728794	170.555115	142.021179
83.781222	171.012878	133.666992
83.833651	180.263519	153.160095
83.886080	172.634125	131.835937
83.938509	168.609619	132.369995
83.990938	184.440613	141.143799
84.043366	181.064606	130.672455
84.095795	167.293549	137.577057
84.148224	169.143677	138.778687
84.200653	173.931122	136.756897
84.253082	162.830353	135.746002
84.305510	188.694000	151.367187
84.357939	174.617767	152.053833
84.410368	166.873932	132.827759
84.462797	175.151825	138.282776
84.515226	179.252625	142.154694
84.567654	185.680389	139.846802
84.620083	175.857544	137.557983
84.672512	166.587830	136.890411
84.724941	170.555115	136.985779
84.777370	174.617767	139.904022
84.829798	174.465179	135.116577
84.882227	176.372528	136.547089
84.934656	189.323425	146.999359
84.987085	176.601410	141.143799
85.039514	185.279846	136.413574
85.091942	185.260773	138.721466
85.144371	189.056396	140.686035
85.196800	180.568695	143.928528
85.249229	166.397095	131.435394
85.301658	185.146332	139.789581
85.354086	182.743073	143.051147
85.406515	175.933838	142.326355
85.458944	175.075531	140.743256
85.511373	176.563263	139.541626
85.563802	160.160065	139.884949
85.616230	173.339844	132.827759
85.668659	174.617767	139.732361
85.721088	165.615082	134.773254
85.773517	186.748505	143.470764
85.825946	159.339905	127.925873
85.878374	185.470581	143.337250
85.930803	166.816711	136.165619
85.983232	192.222595	141.487122
86.035661	197.257996	152.282715
86.088090	178.279877	143.527985
86.140518	173.416138	137.920380
86.192947	181.522369	133.724213
86.245376	168.342590	132.122040
86.297805	175.476074	137.882233
86.350234	184.135437	147.972107
86.402662	180.072784	145.854950
86.455091	180.988312	138.664246
86.507520	176.696777	142.955780
86.559949	172.462463	143.623352
86.612378	182.495117	143.890381
86.664806	174.388885	136.528015
86.717235	174.274445	136.795044
86.769664	174.350739	142.955780
86.822093	188.674927	154.914856
86.874522	158.710480	134.468079
86.926950	174.808502	131.378174
86.979379	176.200867	139.999390
87.031808	173.759460	136.642456
87.084237	164.966583	148.391724
87.136666	169.925690	134.067535
87.189094	169.086456	144.901276
87.241523	188.503265	142.612457
87.293952	169.086456	141.677856
87.346381	179.634094	159.587860
87.398810	171.108246	140.666962
87.451238	171.527863	145.816803
87.503667	173.835754	129.203796
87.556096	172.443390	142.498016
87.608525	174.160004	137.996674
87.660954	174.942017	143.585205
87.713382	163.974762	142.707825
87.765811	157.089233	135.841370
87.818240	170.192719	149.211884
87.870669	171.718597	149.497986
87.923098	180.873871	139.560699
87.975526	167.388916	138.626099
88.027955	182.933807	148.181915
88.080384	168.190002	137.519836
88.132813	186.614990	147.438049
88.185242	175.285339	133.705139
88.237670	171.508789	137.367249
88.290099	166.130066	147.838593
88.342528	173.492432	142.593384
88.394957	178.565979	143.470764
88.447386	177.021027	142.993927
88.499814	180.053711	140.037537
88.552243	170.116425	140.476227
88.604672	181.255341	143.890381
88.657101	157.928467	132.789612
88.709530	173.854828	143.299103
88.761958	183.925629	141.448975
88.814387	161.628723	133.762360
88.866816	171.394348	128.002167
88.919245	178.642273	139.198303
88.971674	179.615021	137.348175
89.024102	178.871155	142.822266
89.076531	174.942017	138.931274
89.128960	165.748596	142.707825
89.181389	174.102783	139.942169
89.233818	178.928375	142.364502
89.286246	177.116394	146.636963
89.338675	175.018311	139.503479
89.391104	174.617767	144.405365
89.443533	170.860291	137.023926
89.495962	158.748627	126.075745
89.548390	168.838501	138.053894
89.600819	184.745789	149.173737
89.653248	185.985565	141.983032
89.705677	172.309875	140.419006
89.758106	177.841187	148.296356
89.810534	181.999207	133.590698
89.862963	175.838470	133.457184
89.915392	186.595917	145.168304
89.967821	171.623230	135.040283
90.020250	175.457001	140.247345
90.072678	169.372559	129.375458
90.125107	169.811249	141.830444
90.177536	169.334412	143.260956
90.229965	180.702209	141.410828
90.282394	171.489716	134.716034
90.334822	173.568726	138.721466
90.387251	194.168091	144.424438
90.439680	174.140930	136.241913
90.492109	172.481537	139.770508
90.544538	178.718567	132.293701
90.596966	170.669556	135.459900
90.649395	162.906647	146.579742
90.701824	191.974640	152.454376
90.754253	166.625977	136.585236
90.806682	177.135468	142.211914
90.859110	163.936615	131.378174
90.911539	189.247131	144.481659
90.963968	169.677734	141.334534
91.016397	166.664124	147.914886
91.068826	181.179047	143.051147
91.121254	169.601440	139.465332
91.173683	158.615112	126.361847
91.226112	167.865753	129.642487
91.278541	161.876678	136.051178
91.330970	174.446106	139.923096
91.383398	175.399780	137.805939
91.435827	174.579620	144.996643
91.488256	176.582336	135.364532
91.540685	177.364349	131.320953
91.593114	165.843964	138.492584
91.645542	179.138184	139.617920
91.697971	175.056458	140.132904
91.750400	177.154541	140.361786
91.802829	175.495148	138.778687
91.855258	185.699463	135.650635
91.907686	179.824829	140.304565
91.960115	183.067322	152.645111
92.012544	173.416138	132.789612
92.064973	187.358856	146.350861
92.117402	168.857574	135.803223
92.169830	170.516968	144.767761
92.222259	167.884827	141.010284
92.274688	175.895691	144.577026
92.327117	184.974670	137.748718
92.379546	179.328918	150.070190
92.431974	163.345337	137.672424
92.484403	164.546967	133.152008
92.536832	164.203644	133.399963
92.589261	176.467896	141.105652
92.641690	173.740387	140.705109
92.694118	187.568665	152.664185
92.746547	191.326141	138.435364
92.798976	170.764923	140.609741
92.851405	177.040100	140.628815
92.903834	170.211792	137.805939
92.956262	188.961029	137.519836
93.008691	179.481506	142.288208
93.061120	168.056488	144.195557
93.113549	177.898407	134.716034
93.165978	183.582306	149.440765
93.218406	174.045563	144.519806
93.270835	172.100067	145.206451
93.323264	190.238953	138.168335
93.375693	164.966583	141.105652
93.428122	183.258057	139.217377
93.480550	164.337158	128.879547
93.532979	173.339844	131.874084
93.585408	173.225403	139.312744
93.637837	182.018280	130.920410
93.690266	178.947449	139.713287
93.742694	172.004700	138.473511
93.795123	180.721283	142.440796
93.847552	183.887482	145.549774
93.899981	175.209045	134.925842
93.952410	166.931152	139.827728
94.004838	172.977448	130.004883
94.057267	179.157257	141.429901
94.109696	179.595947	149.059296
94.162125	176.620483	139.961243
94.214554	177.936554	135.955811
94.266982	178.527832	151.367187
94.319411	174.865723	136.642456
94.371840	157.032013	122.623444
94.424269	173.320770	139.770508
94.476698	171.279907	146.026611
94.529126	189.170837	140.285492
94.581555	169.391632	138.301849
94.633984	185.623169	149.097443
94.686413	172.576904	143.547058
94.738842	178.966522	138.607025
94.791270	183.258057	137.557983
94.843699	169.963837	131.015778
94.896128	179.309845	150.947571
94.948557	181.617737	141.391754
95.000986	170.478821	135.688782
95.053414	178.012848	134.601593
95.105843	185.756683	150.108337
95.158272	168.647766	133.113861
95.210701	180.320740	142.078400
95.263130	176.219940	133.819580
95.315558	168.762207	142.326355
95.367987	167.560577	136.394501
95.420416	169.353485	131.721497
95.472845	184.936523	140.380859
95.525274	177.707672	130.443573
95.577702	168.952942	144.176483
95.630131	168.457031	130.996704
95.682560	176.544189	136.299133
95.734989	180.664062	140.438080
95.787418	173.473358	133.724213
95.839846	161.037445	127.639771
95.892275	167.579651	134.391785
95.944704	165.691376	129.528046
95.997133	171.871185	139.827728
96.049562	186.519623	140.552521
96.101990	176.200867	136.528015
96.154419	168.933868	148.429871
96.206848	180.778503	132.369995
96.259277	178.623199	137.443542
96.311706	174.427032	148.181915
96.364134	171.813965	144.195557
96.416563	177.364349	143.032074
96.468992	176.162720	134.792328
96.521421	163.574219	131.206512
96.573850	177.326202	143.585205
96.626278	179.939270	131.626129
96.678707	182.151794	160.961151
96.731136	163.822174	134.582520
96.783565	181.388855	156.440735
96.835994	168.075562	133.647919
96.888422	182.285309	137.310028
96.940851	182.743073	142.078400
96.993280	163.574219	142.688751
97.045709	174.388885	142.250061
97.098138	171.737671	143.775940
97.150566	174.942017	142.211914
97.202995	187.740326	135.936737
97.255424	165.462494	128.746033
97.307853	168.457031	136.947632
97.360282	165.615082	142.745972
97.412710	180.473328	139.465332
97.465139	166.301727	143.566132
97.517568	169.963837	132.846832
97.569997	178.337097	136.795044
97.622426	179.901123	131.378174
97.674854	173.149109	140.991211
97.727283	177.230835	145.874023
97.779712	177.917480	142.040253
97.832141	171.585083	144.863129
97.884570	178.298950	127.563477
97.936998	162.200928	135.231018
97.989427	182.037354	143.146515
98.041856	186.786652	138.225555
98.094285	170.555115	143.203735
98.146714	175.590515	153.484344
98.199142	188.732147	147.304535
98.251571	170.516968	137.615204
98.304000	172.977448	141.487122
98.356429	179.710388	142.326355
98.408858	173.416138	128.288269
98.461286	178.108215	140.399933
98.513715	161.056519	135.726929
98.566144	179.691315	139.369965
98.618573	184.879303	140.933990
98.671002	182.075500	142.478943
98.723430	164.432526	137.596130
98.775859	174.083710	141.716003
98.828288	176.982880	147.552490
98.880717	174.255371	137.519836
98.933146	166.988373	138.053894
98.985574	168.552399	138.053894
99.038003	169.277191	134.525299
99.090432	180.854797	151.290894
99.142861	171.852112	154.876709
99.195290	171.318054	132.923126
99.247718	187.377930	142.669678
99.300147	164.718628	132.350922
99.352576	174.846649	145.549774
99.405005	173.511505	140.628815
99.457434	153.083801	140.190125
99.509862	176.925659	138.816833
99.562291	172.424316	136.775970
99.614720	167.541504	140.285492
99.667149	184.707642	140.914917
99.719578	173.606873	144.367218
99.772006	186.061859	137.786865
99.824435	166.530609	139.122009
99.876864	169.429779	131.454468
99.929293	167.217255	129.547119
99.981722	181.789398	132.961273
100.034150	182.380676	139.980316
100.086579	175.704956	143.089294
100.139008	174.674988	138.835907
100.191437	166.511536	131.225586
100.243866	170.631409	139.045715
100.296294	183.067322	138.950348
100.348723	164.737701	141.143799
100.401152	164.623260	132.389069
100.453581	177.440643	139.694214
100.506010	166.645050	127.010345
100.558438	163.154602	135.688782
100.610867	174.942017	147.895813
100.663296	172.729492	140.705109
100.715725	192.279816	152.683258
100.768154	176.200867	147.857666
100.820582	187.931061	145.549774
100.873011	176.696777	149.898529
100.925440	186.176300	139.770508
100.977869	178.909302	132.713318
101.030298	170.269012	131.759644
101.082726	187.053680	140.991211
101.135155	172.691345	140.991211
101.187584	178.585052	149.497986
101.240013	177.040100	148.983002
101.292442	184.001923	137.825012
101.344870	167.770386	133.342743
101.397299	171.813965	143.070221
101.449728	169.239044	136.051178
101.502157	168.800354	142.002106
101.554586	165.214539	144.481659
101.607014	181.617737	144.748688
101.659443	179.100037	135.307312
101.711872	171.604156	137.462616
101.764301	167.579651	140.991211
101.816730	169.086456	142.288208
101.869158	179.367065	134.696960
101.921587	182.838440	142.250061
101.974016	179.138184	142.059326
102.026445	175.228119	133.743286
102.078874	167.026520	135.688782
102.131302	174.732208	143.680573
102.183731	176.048279	138.168335
102.236160	161.781311	129.432678
102.288589	185.184479	141.468048
102.341018	172.939301	140.361786
102.393446	188.636780	147.590637
102.445875	175.971985	130.386353
102.498304	174.407959	138.034821
102.550733	190.639496	144.710541
102.603162	173.339844	141.334534
102.655590	164.127350	137.939453
102.708019	176.677704	144.653320
102.760448	174.789429	135.879517
102.812877	181.179047	147.037506
102.865306	169.696808	135.707855
102.917734	173.110962	138.263702
102.970163	171.566010	142.078400
103.022592	186.195374	139.369965
103.075021	175.037384	131.950378
103.127450	184.574127	136.528015
103.179878	172.100067	135.936737
103.232307	171.833038	133.686066
103.284736	183.563232	133.800507
103.337165	172.615051	139.446259
103.389594	166.263580	139.255524
103.442022	176.029205	128.040314
103.494451	165.462494	137.519836
103.546880	174.465179	144.901276
103.599309	174.121857	138.092041
103.651738	183.563232	131.416321
103.704166	178.737640	151.977539
103.756595	176.048279	134.239197
103.809024	156.021118	132.656097
103.861453	165.328979	134.143829
103.913882	163.402557	130.481720
103.966310	163.497925	125.503540
104.018739	175.628662	144.386292
104.071168	168.113708	151.004791
104.123597	181.865692	141.239166
104.176026	181.522369	135.135651
104.228454	164.852142	137.405396
104.280883	175.476074	126.399994
104.333312	173.759460	146.102905
104.385741	196.075439	139.827728
104.438170	162.315369	133.323669
104.490598	183.544159	147.304535
104.543027	169.315338	135.574341
104.595456	164.337158	136.547089
104.647885	173.206329	139.617920
104.700314	177.688599	146.179199
104.752742	167.503357	139.827728
104.805171	164.222717	140.628815
104.857600	180.187225	144.119263
104.910029	178.413391	143.718719
104.962458	175.609589	142.059326
105.014886	180.969238	138.206482
105.067315	170.459747	143.852234
105.119744	165.863037	141.792297
105.172173	169.868469	138.435364
105.224602	171.813965	133.075714
105.277030	177.536011	141.792297
105.329459	173.187256	140.743256
105.381888	170.993805	144.691467
105.434317	175.952911	144.462585
105.486746	179.786682	140.838623
105.539174	165.557861	127.925873
105.591603	181.503296	141.983032
105.644032	175.247192	134.830475
105.696461	179.519653	138.587952
105.748890	184.040070	148.296356
105.801318	185.947418	141.181946
105.853747	163.955688	140.399933
105.906176	178.623199	134.048462
105.958605	187.435150	150.814056
106.011034	172.653198	129.394531
106.063462	180.072784	142.211914
106.115891	187.053680	137.233734
106.168320	186.672211	144.176483
106.220749	164.127350	140.304565
106.273178	164.813995	131.931305
106.325606	175.189972	157.527924
106.378035	182.094574	136.051178
106.430464	180.606842	132.980347
106.482893	170.669556	133.800507
106.535322	172.100067	140.151978
106.587750	169.372559	132.312775
106.640179	173.683167	138.931274
106.692608	172.195435	144.557953
106.745037	175.514221	135.898590
106.797466	171.737671	140.514374
106.849894	175.170898	136.985779
106.902323	171.737671	140.991211
106.954752	179.080963	147.838593
107.007181	170.993805	140.151978
107.059610	168.666840	139.446259
107.112038	164.260864	135.803223
107.164467	164.813995	134.334564
107.216896	167.980194	142.288208
107.269325	182.037354	135.116577
107.321754	170.421600	139.904022
107.374182	173.988342	142.116547
107.426611	172.996521	149.517059
107.479040	187.454224	138.530731
107.531469	174.980164	140.533447
107.583898	177.001953	138.740540
107.636326	176.239014	135.555267
107.688755	175.476074	132.198334
107.741184	169.353485	128.917694
107.793613	176.353455	144.367218
107.846042	179.061890	144.348145
107.898470	171.718597	140.628815
107.950899	181.198120	143.318176
108.003328	186.061859	139.217377
108.055757	173.130035	143.299103
108.108186	177.993774	141.029358
108.160614	173.149109	145.874023
108.213043	167.465210	137.424469
108.265472	163.497925	136.280060
108.317901	175.838470	141.029358
108.370330	164.318085	144.367218
108.422758	174.045563	138.187408
108.475187	186.347961	140.113831
108.527616	186.157227	143.585205
108.580045	166.339874	136.089325
108.632474	170.001984	139.293671
108.684902	170.440674	138.835907
108.737331	177.268982	138.988495
108.789760	165.157318	137.062073
108.842189	164.394379	137.691498
108.894618	164.680481	137.748718
108.947046	170.803070	150.012970
108.999475	169.830322	143.508911
109.051904	172.309875	143.718719
109.104333	185.413361	134.696960
109.156762	175.724030	132.331848
109.209190	171.852112	137.481689
109.261619	174.846649	142.192841
109.314048	183.582306	148.315430
109.366477	188.598633	138.587952
109.418906	191.040039	148.048401
109.471334	169.315338	136.547089
109.523763	164.127350	135.765076
109.576192	188.350677	132.560730
109.628621	160.446167	137.920380
109.681050	169.963837	132.446289
109.733478	172.653198	150.718689
109.785907	178.356171	135.364532
109.838336	176.391602	142.803192
109.890765	171.737671	136.184692
109.943194	181.274414	137.672424
109.995622	180.721283	135.993958
110.048051	176.982880	135.135651
110.100480	179.996490	138.282776
110.152909	174.522400	129.928589
110.205338	170.516968	140.113831
110.257766	174.102783	134.925842
110.310195	169.467926	144.519806
110.362624	185.756683	137.310028
110.415053	164.260864	131.359100
110.467482	171.852112	133.495331
110.519910	176.219940	139.465332
110.572339	172.100067	135.707855
110.624768	183.334351	138.416290
110.677197	184.459686	139.656067
110.729626	174.636841	142.822266
110.782054	171.680450	136.795044
110.834483	179.328918	135.860443
110.886912	182.170868	139.064789
110.939341	174.522400	137.424469
110.991770	179.710388	140.571594
111.044198	180.358887	141.048431
111.096627	176.239014	142.822266
111.149056	178.699493	130.062103
111.201485	178.356171	139.293671
111.253914	164.318085	135.555267
111.306342	164.604187	129.947662
111.358771	179.672241	132.827759
111.411200	167.465210	133.514404
111.463629	178.108215	143.604279
111.516058	174.770355	145.149231
111.568486	177.783966	133.323669
111.620915	172.672272	132.522583
111.673344	172.824860	129.661560
111.725773	173.416138	132.446289
111.778202	162.010193	124.568939
111.830630	190.734863	146.408081
111.883059	177.230835	139.751434
111.935488	161.685944	131.473541
111.987917	185.871124	150.279999
112.040346	171.527863	144.081116
112.092774	168.380737	133.132935
112.145203	161.495209	137.405396
112.197632	179.328918	141.048431
112.250061	175.075531	143.795013
112.302490	176.563263	137.901306
112.354918	185.794830	139.560699
112.407347	188.312531	143.871307
112.459776	168.838501	144.367218
112.512205	178.794861	141.716003
112.564634	167.598724	143.432617
112.617062	172.195435	143.146515
112.669491	186.996460	141.792297
112.721920	184.288025	141.849518
112.774349	173.835754	149.002075
112.826778	175.628662	128.364563
112.879206	175.552368	146.064758
112.931635	173.206329	128.173828
112.984064	177.097321	148.162842
113.036493	180.644989	137.977600
113.088922	164.756775	140.819550
113.141350	175.876617	144.424438
113.193779	165.882111	137.653351
113.246208	189.285278	148.906708
113.298637	176.677704	136.547089
113.351066	172.214508	127.964020
113.403494	175.781250	140.438080
113.455923	168.209076	137.290955
113.508352	164.852142	138.053894
113.560781	173.854828	143.890381
113.613210	177.440643	137.462616
113.665638	189.247131	146.636963
113.718067	182.399750	136.775970
113.770496	184.688568	138.225555
113.822925	183.506012	136.165619
113.875354	175.533295	138.988495
113.927782	187.664032	138.607025
113.980211	165.462494	135.173798
114.032640	163.955688	146.713257
114.085069	179.996490	141.963959
114.137498	183.715820	145.511627
114.189926	174.236298	128.517151
114.242355	168.476105	134.620667
114.294784	180.301666	134.487152
114.347213	167.655945	133.171082
114.399642	165.233612	133.934021
114.452070	177.021027	143.318176
114.504499	166.397095	134.582520
114.556928	183.486938	139.598846
114.609357	175.209045	135.078430
114.661786	171.394348	145.397186
114.714214	192.279816	134.220123
114.766643	178.318024	144.977570
114.819072	181.121826	143.699646
114.871501	172.405243	135.917664
114.923930	166.530609	140.190125
114.976358	187.225342	145.053864
115.028787	177.860260	139.865875
115.081216	177.078247	146.064758
115.133645	179.481506	145.664215
115.186074	178.184509	145.874023
115.238502	181.636810	140.743256
115.290931	171.298981	129.966736
115.343360	171.871185	137.863159
115.395789	189.628601	146.465302
115.448218	168.800354	134.334564
115.500646	177.650452	146.522522
115.553075	177.860260	135.803223
115.605504	180.931091	141.296387
115.657933	180.625916	146.350861
115.710362	180.168152	127.086639
115.762790	175.704956	131.568909
115.815219	177.459717	137.310028
115.867648	186.462402	142.955780
115.920077	170.936584	147.590637
115.972506	173.912048	141.277313
116.024934	171.909332	139.198303
116.077363	178.508759	141.658783
116.129792	177.097321	141.811371
116.182221	177.116394	134.792328
116.234650	176.086426	144.424438
116.287078	180.110931	144.348145
116.339507	178.985596	140.171051
116.391936	161.571503	142.879486
116.444365	184.535980	143.337250
116.496794	183.715820	140.151978
116.549222	164.356232	134.963989
116.601651	179.824829	128.231049
116.654080	172.615051	139.694214
116.706509	169.849396	131.530762
116.758938	186.347961	142.478943
116.811366	169.334412	139.980316
116.863795	169.715881	137.386322
116.916224	183.849335	140.361786
116.968653	161.056519	137.138367
117.021082	181.941986	147.743225
117.073510	175.304413	142.383575
117.125939	181.064606	137.042999
117.178368	185.203552	141.658783
117.230797	179.557800	138.835907
117.283226	168.037415	136.260986
117.335654	177.822113	133.419037
117.388083	180.072784	149.364471
117.440512	173.435211	150.146484
117.492941	174.942017	136.470795
117.545370	178.394318	143.451691
117.597798	181.484222	135.746002
117.650227	182.285309	132.102966
117.702656	166.988373	123.615265
117.755085	175.228119	134.143829
117.807514	177.650452	146.236420
117.859942	181.369781	138.645172
117.912371	173.015594	141.468048
117.964800	182.914734	142.898560
118.017229	178.623199	148.010254
118.069658	171.871185	136.623383
118.122086	174.655914	135.421753
118.174515	187.320709	147.476196
118.226944	168.914795	136.680603
118.279373	171.279907	142.459869
118.331802	183.010101	138.893127
118.384230	179.843903	153.465271
118.436659	172.767639	135.822296
118.489088	173.530579	141.811371
118.541517	169.639587	137.252808
118.593946	168.762207	140.285492
118.646374	180.511475	148.544312
118.698803	175.380707	135.459900
118.751232	179.100037	139.350891
118.803661	169.773102	141.983032
118.856090	169.200897	133.628845
118.908518	173.969269	129.432678
118.960947	174.808502	135.059357
119.013376	166.988373	143.013000
119.065805	177.497864	141.334534
119.118234	178.909302	140.342712
119.170662	160.026550	137.767792
119.223091	173.645020	134.830475
119.275520	182.819366	140.666962
119.327949	171.737671	144.710541
119.380378	191.860199	146.102905
119.432806	172.634125	143.413544
119.485235	178.508759	141.849518
119.537664	157.375336	141.105652
119.590093	183.696747	139.617920
119.642522	163.383484	133.476257
119.694950	172.233582	133.972168
119.747379	183.296204	140.285492
119.799808	173.416138	139.389038
119.852237	171.127319	132.770538
119.904666	167.884827	127.468109
119.957094	179.882050	142.192841
120.009523	183.601379	137.767792
120.061952	188.274384	141.754150
120.114381	162.220001	128.173828
120.166810	184.154510	145.397186
120.219238	182.590485	152.359009
120.271667	183.944702	143.318176
120.324096	166.206360	138.988495
120.376525	187.149048	146.389008
120.428954	171.470642	138.263702
120.481382	181.427002	134.696960
120.533811	181.808472	139.636993
120.586240	159.893036	134.315491
120.638669	172.348022	143.795013
120.691098	164.127350	135.650635
120.743526	168.304443	137.767792
120.795955	178.546906	142.440796
120.848384	172.538757	139.350891
120.900813	171.718597	142.173767
120.953242	181.579590	142.307281
121.005670	174.655914	135.059357
121.058099	173.091888	150.032043
121.110528	166.130066	131.416321
121.162957	160.884857	134.105682
121.215386	173.740387	137.386322
121.267814	180.473328	130.500793
121.320243	198.974609	149.917603
121.372672	178.375244	144.767761
121.425101	172.233582	139.350891
121.477530	174.407959	145.454407
121.529958	181.236267	141.887665
121.582387	174.293518	133.075714
121.634816	169.773102	141.963959
121.687245	164.184570	135.498047
121.739674	178.470612	149.688721
121.792102	181.694031	140.190125
121.844531	164.756775	143.680573
121.896960	172.824860	136.165619
121.949389	176.315308	145.702362
122.001818	185.031891	138.359070
122.054246	165.824890	144.386292
122.106675	181.541443	145.778656
122.159104	163.326263	136.623383
122.211533	177.974701	151.710510
122.263962	180.835724	144.691467
122.316390	174.140930	142.459869
122.368819	170.917511	142.459869
122.421248	168.514252	139.636993
122.473677	164.299011	126.342773
122.526106	173.168182	150.966644
122.578534	179.595947	136.680603
122.630963	168.094635	144.767761
122.683392	169.353485	135.383606
122.735821	168.571472	135.498047
122.788250	160.903931	132.865906
122.840678	165.786743	139.503479
122.893107	172.424316	136.165619
122.945536	180.397034	139.198303
122.997965	174.942017	138.874054
123.050394	154.819489	136.051178
123.102822	180.492401	139.427185
123.155251	184.478760	140.304565
123.207680	175.971985	139.389038
123.260109	171.604156	137.100220
123.312538	182.361603	152.664185
123.364966	176.448822	135.002136
123.417395	170.688629	138.378143
123.469824	176.010132	141.620636
123.522253	172.100067	136.184692
123.574682	179.367065	131.320953
123.627110	182.266235	134.410858
123.679539	170.154572	136.356354
123.731968	179.996490	140.972137
123.784397	173.969269	145.778656
123.836826	184.612274	147.743225
123.889254	168.056488	126.895905
123.941683	189.495087	135.746002
123.994112	172.328949	148.429871
124.046541	165.920258	132.942200
124.098970	168.857574	129.833221
124.151398	172.138214	136.260986
124.203827	191.822052	147.018433
124.256256	180.892944	139.293671
124.308685	174.903870	127.086639
124.361114	163.402557	134.429932
124.413542	173.473358	137.615204
124.465971	174.465179	128.650665
124.518400	162.124634	146.827698
124.570829	162.925720	139.255524
124.623258	146.884918	128.173828
124.675686	181.427002	146.865845
124.728115	182.552338	135.822296
124.780544	166.664124	146.389008
124.832973	178.241730	147.285461
124.885402	159.873962	132.026672
124.937830	171.813965	144.119263
124.990259	175.762177	139.389038
125.042688	172.290802	152.721405
125.095117	178.852081	142.211914
125.147546	176.753998	145.721436
125.199974	168.304443	139.141083
125.252403	186.252594	148.429871
125.304832	177.173615	146.999359
125.357261	173.320770	136.566162
125.409690	180.530548	145.282745
125.462118	179.290771	130.214691
125.514547	187.416077	144.004822
125.566976	170.822144	136.966705
125.619405	170.001984	143.604279
125.671834	181.808472	137.157440
125.724262	166.625977	141.925812
125.776691	183.734894	148.658752
125.829120	176.372528	134.563446
125.881549	167.560577	129.642487
125.933978	177.783966	141.143799
125.986406	181.713104	132.102966
126.038835	172.004700	133.380890
126.091264	188.217163	143.489838
126.143693	172.901154	132.141113
126.196122	151.386261	134.277344
126.248550	183.258057	149.650574
126.300979	171.146393	133.953094
126.353408	184.669495	137.481689
126.405837	169.658661	150.852203
126.458266	174.121857	136.528015
126.510694	185.966492	140.857697
126.563123	178.699493	138.912201
126.615552	169.315338	137.386322
126.667981	181.159973	140.666962
126.720410	185.279846	136.680603
126.772838	192.470551	151.615143
126.825267	169.868469	129.394531
126.877696	176.963806	140.380859
126.930125	188.636780	144.195557
126.982554	157.833099	128.726959
127.034982	192.775726	145.854950
127.087411	177.593231	148.105621
127.139840	170.955658	143.032074
127.192269	168.991089	137.882233
127.244698	165.100098	134.658813
127.297126	172.176361	135.135651
127.349555	169.429779	141.391754
127.401984	180.969238	134.601593
127.454413	181.541443	138.683319
127.506842	173.358917	136.795044
127.559270	172.023773	137.004852
127.611699	176.582336	136.756897
127.664128	170.421600	137.329102
127.716557	174.942017	147.056580
127.768986	186.271667	152.873993
127.821414	164.833069	137.996674
127.873843	165.138245	134.983063
127.926272	169.639587	132.217407
127.978701	177.497864	129.261017
128.031130	173.110962	140.609741
128.083558	173.835754	132.465363
128.135987	179.901123	138.416290
128.188416	165.653229	135.860443
128.240845	191.879272	160.007477
128.293274	186.443329	139.865875
128.345702	162.429810	143.604279
128.398131	194.435120	148.830414
128.450560	178.298950	148.563385
128.502989	171.337128	137.138367
128.555418	185.127258	139.102936
128.607846	184.192657	136.756897
128.660275	185.947418	144.443512
128.712704	170.421600	139.064789
128.765133	174.064636	137.691498
128.817562	167.198181	131.931305
128.869990	186.424255	138.721466
128.922419	155.124664	138.435364
128.974848	191.478729	145.626068
129.027277	173.511505	135.555267
129.079706	173.721313	135.517120
129.132134	179.119110	137.577057
129.184563	186.100006	136.528015
129.236992	166.015625	138.988495
129.289421	178.260803	145.454407
129.341850	179.977417	142.555237
129.394278	173.053741	134.944916
129.446707	164.508820	130.729675
129.499136	173.206329	143.833160
129.551565	176.029205	128.154755
129.603994	172.615051	140.285492
129.656422	172.195435	134.639740
129.708851	172.920227	132.904053
129.761280	169.467926	137.729645
129.813709	174.369812	137.500763
129.866138	166.931152	140.838623
129.918566	178.279877	150.108337
129.970995	191.307068	146.980286
130.023424	163.860321	134.277344
130.075853	174.198151	121.078491
130.128282	173.950195	142.440796
130.180710	179.462433	138.378143
130.233139	172.061920	138.359070
130.285568	182.971954	138.721466
130.337997	173.950195	137.577057
130.390426	175.266266	143.470764
130.442854	168.228149	139.369965
130.495283	173.778534	133.285522
130.547712	173.568726	138.797760
130.600141	176.124573	132.503510
130.652570	172.424316	138.568878
130.704998	181.941986	135.440826
130.757427	168.132782	131.664276
130.809856	182.571411	140.266418
130.862285	171.051025	139.923096
130.914714	179.386139	142.898560
130.967142	167.465210	130.577087
131.019571	176.219940	149.593353
131.072000	168.952942	142.250061
131.124429	174.217224	133.800507
131.176858	162.811279	134.735107
131.229286	185.775757	143.756866
131.281715	185.718536	141.277313
131.334144	186.176300	146.331787
131.386573	180.397034	144.309998
131.439002	166.492462	132.484436
131.491430	174.484253	142.269135
131.543859	171.337128	139.350891
131.596288	158.710480	140.705109
131.648717	170.345306	134.296417
131.701146	171.699524	134.849548
131.753574	166.587830	139.198303
131.806003	185.394287	137.386322
131.858432	168.190002	129.985809
131.910861	176.734924	138.053894
131.963290	163.860321	146.980286
132.015718	167.579651	135.421753
132.068147	172.691345	132.884979
132.120576	180.511475	132.884979
132.173005	186.710358	147.037506
132.225434	172.004700	146.942139
132.277862	177.230835	137.443542
132.330291	155.372620	133.495331
132.382720	159.244537	143.470764
132.435149	200.042725	157.566071
132.487578	178.718567	132.217407
132.540006	172.309875	147.476196
132.592435	174.388885	140.533447
132.644864	166.950226	137.519836
132.697293	162.467957	142.745972
132.749722	175.762177	145.759583
132.802150	177.173615	137.348175
132.854579	169.963837	138.206482
132.907008	177.497864	137.901306
132.959437	167.369843	142.059326
133.011866	170.574188	136.680603
133.064294	189.399719	148.639679
133.116723	174.617767	143.928528
133.169152	168.418884	139.732361
133.221581	163.440704	126.800537
133.274010	174.217224	141.315460
133.326438	180.778503	132.865906
133.378867	174.694061	137.996674
133.431296	164.394379	140.838623
133.483725	179.710388	145.435333
133.536154	171.203613	144.214630
133.588582	162.982941	143.966675
133.641011	172.920227	140.857697
133.693440	164.966583	133.094788
133.745869	167.083740	135.536194
133.798298	179.100037	129.566193
133.850726	183.353424	151.176453
133.903155	175.952911	138.111115
133.955584	163.440704	129.451752
134.008013	159.759521	125.789642
134.060442	173.034668	138.111115
134.112870	177.402496	142.135620
134.165299	180.454254	146.770477
134.217728	188.522339	146.102905
134.270157	155.925751	131.759644
134.322586	189.781189	151.958466
134.375014	169.658661	130.863190
134.427443	169.544220	137.176514
134.479872	175.933838	135.955811
134.532301	179.920197	147.533417
134.584730	164.108276	133.304596
134.637158	173.187256	133.819580
134.689587	176.887512	133.895874
134.742016	184.040070	149.154663
134.794445	175.762177	126.380920
134.846874	176.296234	140.914917
134.899302	161.685944	131.416321
134.951731	180.072784	145.759583
135.004160	180.492401	145.511627
135.056589	182.971954	132.827759
135.109018	175.838470	140.342712
135.161446	174.617767	131.282806
135.213875	178.565979	147.895813
135.266304	177.478790	141.582489
135.318733	174.388885	146.083832
135.371162	162.677765	131.473541
135.423590	184.402466	137.977600
135.476019	171.222687	136.413574
135.528448	162.067413	133.819580
135.580877	173.263550	140.361786
135.633306	177.326202	130.310059
135.685734	184.669495	141.315460
135.738163	184.345245	141.983032
135.790592	173.034668	135.879517
135.843021	178.833008	144.195557
135.895450	183.849335	148.658752
135.947878	185.890198	142.803192
136.000307	167.598724	147.514343
136.052736	177.860260	144.805908
136.105165	160.198212	135.459900
136.157594	174.846649	144.615173
136.210022	177.173615	137.767792
136.262451	181.121826	133.132935
136.314880	171.623230	128.097534
136.367309	181.503296	142.955780
136.419738	176.811218	140.419006
136.472166	170.860291	129.890442
136.524595	184.364319	143.280029
136.577024	171.127319	143.489838
136.629453	175.323486	144.977570
136.681882	169.982910	128.364563
136.734310	178.508759	138.378143
136.786739	174.179077	134.201050
136.839168	163.002014	137.939453
136.891597	182.933807	136.222839
136.944026	169.143677	137.920380
136.996454	173.339844	141.849518
137.048883	167.770386	133.953094
137.101312	173.263550	146.408081
137.153741	167.579651	134.506226
137.206170	187.511444	150.756836
137.258598	179.214478	135.860443
137.311027	177.478790	136.547089
137.363456	168.437958	141.429901
137.415885	177.974701	140.628815
137.468314	181.751251	138.072968
137.520742	169.105530	139.446259
137.573171	180.225372	147.190094
137.625600	168.704987	147.285461
137.678029	171.813965	139.255524
137.730458	184.249878	147.418976
137.782886	161.476135	134.277344
137.835315	167.522430	136.203766
137.887744	185.928345	143.432617
137.940173	184.173584	138.244629
137.992602	172.882080	147.285461
138.045030	177.955627	138.931274
138.097459	177.669525	143.547058
138.149888	171.318054	140.876770
138.202317	178.585052	139.446259
138.254746	178.623199	127.048492
138.307174	174.503326	143.184662
138.359603	179.557800	149.555206
138.412032	173.149109	150.985718
138.464461	176.620483	133.495331
138.516890	167.179108	143.775940
138.569318	167.789459	125.923157
138.621747	177.421570	146.503448
138.674176	164.012909	144.176483
138.726605	176.963806	143.814087
138.779034	167.846680	145.130157
138.831462	177.803040	139.255524
138.883891	178.146362	145.874023
138.936320	177.764893	139.293671
138.988749	171.051025	137.138367
139.041178	165.252686	127.315521
139.093606	164.432526	139.331818
139.146035	174.617767	140.590668
139.198464	167.102814	141.143799
139.250893	168.437958	140.552521
139.303322	175.399780	134.792328
139.355750	168.437958	136.528015
139.408179	169.982910	132.427216
139.460608	166.339874	135.059357
139.513037	168.571472	135.002136
139.565466	174.808502	134.773254
139.617894	169.181824	132.789612
139.670323	166.721344	131.015778
139.722752	170.669556	134.601593
139.775181	176.544189	138.854980
139.827610	180.683136	143.814087
139.880038	181.388855	143.547058
139.932467	188.121796	141.429901
139.984896	170.745850	132.637024
140.037325	179.500580	133.457184
140.089754	172.214508	139.980316
140.142182	176.029205	136.394501
140.194611	178.375244	140.933990
140.247040	168.838501	135.059357
140.299469	167.026520	132.408142
140.351898	166.454315	131.435394
140.404326	170.879364	132.541656
140.456755	170.326233	131.950378
140.509184	178.222656	146.026611
140.561613	173.358917	137.348175
140.614042	162.582397	134.506226
140.666470	164.813995	135.421753
140.718899	167.579651	137.042999
140.771328	170.707703	153.312683
140.823757	174.274445	145.149231
140.876186	185.928345	142.402649
140.928614	164.470673	146.141052
140.981043	156.002045	125.846863
141.033472	180.664062	137.557983
141.085901	174.884796	133.266449
141.138330	184.211731	148.544312
141.190758	177.688599	152.397156
141.243187	170.059204	137.844086
141.295616	170.364380	139.446259
141.348045	165.004730	141.506195
141.400474	167.427063	130.691528
141.452902	183.753967	147.075653
141.505331	179.157257	146.980286
141.557760	175.724030	133.228302
141.610189	189.132690	136.280060
141.662618	170.574188	131.950378
141.715046	184.860229	140.800476
141.767475	169.487000	132.770538
141.819904	172.672272	136.795044
141.872333	177.078247	145.244598
141.924762	177.059174	144.767761
141.977190	170.249939	142.993927
142.029619	164.852142	144.023895
142.082048	174.045563	128.707886
142.134477	175.113678	140.209198
142.186906	181.217194	141.239166
142.239334	170.345306	131.969452
142.291763	171.928406	135.784149
142.344192	170.879364	134.105682
142.396621	177.440643	143.280029
142.449050	175.018311	144.977570
142.501478	166.492462	139.026642
142.553907	188.941956	144.538879
142.606336	184.822083	141.353607
142.658765	177.307129	134.334564
142.711194	174.922943	135.822296
142.763622	179.786682	152.664185
142.816051	184.898376	139.331818
142.868480	179.367065	133.190155
142.920909	179.328918	132.160187
142.973338	173.587799	133.743286
143.025766	191.535950	136.966705
143.078195	175.266266	133.342743
143.130624	182.170868	144.882202
143.183053	170.783997	135.402679
143.235482	181.465149	135.784149
143.287910	169.525146	129.756927
143.340339	174.465179	145.092010
143.392768	174.579620	131.187439
143.445197	165.519714	131.587982
143.497626	172.958374	130.195618
143.550054	177.860260	144.405365
143.602483	172.271729	134.487152
143.654912	170.631409	129.642487
143.707341	182.418823	142.173767
143.759770	172.653198	138.301849
143.812198	165.252686	137.557983
143.864627	178.928375	133.590698
143.917056	174.331665	138.587952
143.969485	177.631378	140.304565
144.021914	165.920258	137.729645
144.074342	167.865753	138.263702
144.126771	179.786682	143.642426
144.179200	171.527863	139.732361
144.231629	166.110992	140.705109
144.284058	198.535919	138.130188
144.336486	170.879364	129.852295
144.388915	192.680359	148.258209
144.441344	168.361664	135.612488
144.493773	177.936554	137.329102
144.546202	173.492432	135.364532
144.598630	176.162720	137.863159
144.651059	165.176392	133.514404
144.703488	178.050995	130.405426
144.755917	174.560547	143.089294
144.808346	184.001923	141.830444
144.860774	188.026428	147.857666
144.913203	171.737671	144.233704
144.965632	169.219971	136.146545
145.018061	172.901154	139.331818
145.070490	173.492432	132.579803
145.122918	182.914734	145.931244
145.175347	176.448822	153.007507
145.227776	164.966583	132.637024
145.280205	173.645020	126.953125
145.332634	180.168152	132.007599
145.385062	183.162689	144.577026
145.437491	175.189972	134.239197
145.489920	170.555115	137.805939
145.542349	185.718536	142.097473
145.594778	163.993835	129.089355
145.647206	170.726776	137.157440
145.699635	173.568726	136.375427
145.752064	168.914795	132.560730
145.804493	171.546936	140.514374
145.856922	166.816711	144.538879
145.909350	173.053741	142.822266
145.961779	165.576935	138.473511
146.014208	171.718597	139.465332
146.066637	165.328979	137.462616
146.119066	171.585083	135.936737
146.171494	163.822174	128.555298
146.223923	175.075531	137.596130
146.276352	170.841217	130.290985
146.328781	162.277222	137.901306
146.381210	166.530609	138.587952
146.433638	180.492401	148.525238
146.486067	169.258118	133.781433
146.538496	178.813934	141.735077
146.590925	172.138214	129.413605
146.643354	176.277161	140.171051
146.695782	174.083710	137.786865
146.748211	185.337067	132.198334
146.800640	171.031952	128.097534
146.853069	187.473297	144.977570
146.905498	169.219971	139.846802
146.957926	165.519714	138.053894
147.010355	168.342590	130.233765
147.062784	158.386230	140.590668
147.115213	170.783997	130.500793
147.167642	170.211792	138.225555
147.220070	165.386200	134.792328
147.272499	172.367096	136.013031
147.324928	186.538696	139.122009
147.377357	178.947449	145.606995
147.429786	173.263550	131.568909
147.482214	162.601471	134.315491
147.534643	172.691345	141.410828
147.587072	181.827545	147.171021
147.639501	180.778503	138.797760
147.691930	179.195404	137.882233
147.744358	170.612335	137.424469
147.796787	188.503265	151.786804
147.849216	165.328979	131.626129
147.901645	170.040131	140.857697
147.954074	170.269012	129.280090
148.006502	181.083679	135.707855
148.058931	173.416138	134.201050
148.111360	178.871155	137.596130
148.163789	185.489655	139.923096
148.216218	171.089172	135.784149
148.268646	169.334412	131.053925
148.321075	189.037323	142.822266
148.373504	171.108246	129.909515
148.425933	158.996582	130.519867
148.478362	160.770416	139.446259
148.530790	182.838440	138.072968
148.583219	178.451538	144.615173
148.635648	178.813934	140.666962
148.688077	165.271759	142.250061
148.740506	167.121887	136.089325
148.792934	183.219910	139.884949
148.845363	178.451538	142.440796
148.897792	163.860321	131.473541
148.950221	167.007446	134.143829
149.002650	176.849365	139.350891
149.055078	192.260742	144.824982
149.107507	202.064514	137.538910
149.159936	178.546906	135.936737
149.212365	164.852142	137.462616
149.264794	182.933807	141.181946
149.317222	172.500610	136.890411
149.369651	178.318024	131.835937
149.422080	174.942017	139.923096
149.474509	164.775848	137.901306
149.526938	169.792175	129.566193
149.579366	167.579651	141.601562
149.631795	179.958344	130.100250
149.684224	163.307190	133.361816
149.736653	179.290771	133.819580
149.789082	176.181793	133.743286
149.841510	181.884766	133.419037
149.893939	178.985596	141.124725
149.946368	168.151855	134.830475
149.998797	174.427032	137.405396
150.051226	166.835785	142.993927
150.103654	177.345276	134.582520
150.156083	172.481537	138.683319
150.208512	173.149109	142.765045
150.260941	150.985718	126.590729
150.313370	170.707703	134.334564
150.365798	178.375244	135.364532
150.418227	180.511475	144.691467
150.470656	187.683105	138.435364
150.523085	172.100067	138.492584
150.575514	182.399750	131.282806
150.627942	180.473328	143.413544
150.680371	174.751282	137.329102
150.732800	166.549683	141.601562
150.785229	174.674988	128.459930
150.837658	172.996521	142.364502
150.890086	167.026520	124.835968
150.942515	181.446075	135.574341
150.994944	171.432495	127.258301
151.047373	167.732239	130.138397
151.099802	162.982941	143.108368
151.152230	186.252594	133.800507
151.204659	181.522369	137.081146
151.257088	167.064667	141.258240
151.309517	170.860291	139.522552
151.361946	163.822174	138.416290
151.414374	167.236328	146.064758
151.466803	165.023804	142.345428
151.519232	176.486969	139.808655
151.571661	183.925629	139.160156
151.624090	161.724091	134.544373
151.676518	175.266266	130.653381
151.728947	170.707703	135.040283
151.781376	184.059143	138.530731
151.833805	170.726776	133.914948
151.886234	185.966492	137.557983
151.938662	165.672302	138.626099
151.991091	167.312622	141.925812
152.043520	166.797638	141.029358
152.095949	181.827545	139.179230
152.148378	166.645050	133.552551
152.200806	182.781219	139.713287
152.253235	166.397095	129.909515
152.305664	169.601440	137.329102
152.358093	184.059143	142.097473
152.410522	168.056488	126.686096
152.462950	170.707703	137.348175
152.515379	175.914764	139.369965
152.567808	163.478851	141.601562
152.620237	181.655884	140.399933
152.672666	186.347961	137.977600
152.725094	167.064667	131.168365
152.777523	173.110962	133.113861
152.829952	172.653198	142.459869
152.882381	174.541473	142.002106
152.934810	171.051025	142.974854
152.987238	163.021088	139.179230
153.039667	165.252686	133.247375
153.092096	169.258118	130.062103
153.144525	183.410645	138.206482
153.196954	178.222656	139.293671
153.249382	176.563263	138.816833
153.301811	193.729401	139.770508
153.354240	185.813904	147.304535
153.406669	183.086395	142.211914
153.459098	169.124603	137.290955
153.511526	166.378021	146.808624
153.563955	169.944763	141.048431
153.616384	178.489685	151.309967
153.668813	173.950195	135.898590
153.721242	168.933868	138.854980
153.773670	177.879333	140.190125
153.826099	164.833069	139.064789
153.878528	171.585083	136.508942
153.930957	169.467926	140.171051
153.983386	178.146362	125.675201
154.035814	180.053711	143.165588
154.088243	170.612335	148.239136
154.140672	176.219940	144.462585
154.193101	169.982910	141.487122
154.245530	179.576874	152.549744
154.297958	180.778503	137.081146
154.350387	163.688660	137.920380
154.402816	175.037384	141.639709
154.455245	189.533234	151.023865
154.507674	174.713135	141.429901
154.560102	173.816681	135.116577
154.612531	177.116394	130.977631
154.664960	172.138214	146.160126
154.717389	171.413422	149.841309
154.769818	165.805817	146.942139
154.822246	164.604187	129.833221
154.874675	156.860352	138.645172
154.927104	175.876617	138.111115
154.979533	151.176453	135.517120
155.031962	172.328949	135.440826
155.084390	180.721283	132.408142
155.136819	177.040100	132.675171
155.189248	161.285400	123.062134
155.241677	170.936584	137.271881
155.294106	174.121857	127.925873
155.346534	169.372559	134.525299
155.398963	155.086517	140.609741
155.451392	179.996490	136.051178
155.503821	174.484253	144.023895
155.556250	188.312531	143.814087
155.608678	183.296204	137.596130
155.661107	174.598694	131.816864
155.713536	175.514221	146.331787
155.765965	161.571503	136.127472
155.818394	164.127350	134.334564
155.870822	177.440643	139.274597
155.923251	177.440643	140.094757
155.975680	175.762177	134.296417
156.028109	184.631348	138.130188
156.080538	168.781281	128.974915
156.132966	177.402496	139.102936
156.185395	175.724030	137.290955
156.237824	182.762146	134.372711
156.290253	177.383423	134.296417
156.342682	168.285370	129.165649
156.395110	182.781219	147.647858
156.447539	172.424316	134.868622
156.499968	179.233551	135.459900
156.552397	167.274475	139.312744
156.604826	183.105469	156.307220
156.657254	162.239075	132.217407
156.709683	173.149109	137.786865
156.762112	168.361664	131.587982
156.814541	189.075470	144.443512
156.866970	171.375275	141.277313
156.919398	161.552429	140.762329
156.971827	176.906586	138.607025
157.024256	172.500610	143.184662
157.076685	170.803070	133.781433
157.129114	170.116425	133.781433
157.181542	171.909332	133.152008
157.233971	175.876617	129.203796
157.286400	170.116425	135.707855
157.338829	171.642303	135.746002
157.391258	175.628662	135.097504
157.443686	159.931183	130.348206
157.496115	185.260773	146.617889
157.548544	171.108246	131.530762
157.600973	169.734955	142.173767
157.653402	166.950226	143.814087
157.705830	175.056458	145.492554
157.758259	188.732147	148.391724
157.810688	164.279938	130.329132
157.863117	168.819427	140.953064
157.915546	179.405212	132.522583
157.967974	176.887512	134.258270
158.020403	177.898407	140.647888
158.072832	174.236298	138.015747
158.125261	194.301605	140.552521
158.177690	166.130066	142.536163
158.230118	169.162750	130.786896
158.282547	176.525116	147.018433
158.334976	173.225403	136.375427
158.387405	184.631348	143.947601
158.439834	171.833038	137.786865
158.492262	174.388885	141.887665
158.544691	186.386108	149.116516
158.597120	172.462463	136.985779
158.649549	179.424286	134.487152
158.701978	169.868469	139.617920
158.754406	167.694092	133.876801
158.806835	169.487000	144.786835
158.859264	174.942017	144.367218
158.911693	173.683167	144.386292
158.964122	165.958405	136.890411
159.016550	192.413330	132.808685
159.068979	183.410645	132.923126
159.121408	169.811249	142.688751
159.173837	169.620514	132.293701
159.226266	169.219971	136.089325
159.278694	179.519653	137.176514
159.331123	156.230927	125.370026
159.383552	161.914825	121.212006
159.435981	183.010101	137.958527
159.488410	169.124603	134.811401
159.540838	174.083710	127.696991
159.593267	175.228119	130.271912
159.645696	177.917480	137.481689
159.698125	181.007385	140.171051
159.750554	167.999268	128.593445
159.802982	168.972015	138.397217
159.855411	173.530579	143.947601
159.907840	174.293518	134.410858
159.960269	171.928406	139.007568
160.012698	164.947510	144.290924
160.065126	173.492432	140.933990
160.117555	172.309875	140.190125
160.169984	172.100067	134.639740
160.222413	174.942017	144.214630
160.274842	177.497864	139.141083
160.327270	171.527863	138.835907
160.379699	159.721375	137.252808
160.432128	165.653229	137.481689
160.484557	158.424377	138.359070
160.536986	178.604126	144.157410
160.589414	186.004639	143.814087
160.641843	158.042908	136.795044
160.694272	165.023804	141.429901
160.746701	178.413391	135.650635
160.799130	172.214508	149.326324
160.851558	169.544220	144.138336
160.903987	171.661377	143.775940
160.956416	171.146393	123.977661
161.008845	193.920135	142.230988
161.061274	164.356232	132.865906
161.113702	169.715881	130.939484
161.166131	165.805817	130.481720
161.218560	175.189972	132.617950
161.270989	181.674957	136.985779
161.323418	167.388916	129.013062
161.375846	172.195435	143.737793
161.428275	180.664062	145.301819
161.480704	192.470551	133.075714
161.533133	179.538727	138.587952
161.585562	166.358948	128.841400
161.637990	163.478851	129.623413
161.690419	161.457062	130.882263
161.742848	167.961121	137.996674
161.795277	169.200897	138.111115
161.847706	172.996521	131.664276
161.900134	175.647736	129.699707
161.952563	177.936554	130.901337
162.004992	173.702240	141.868591
162.057421	178.451538	148.010254
162.109850	164.661407	135.021210
162.162278	183.639526	136.375427
162.214707	182.743073	148.086548
162.267136	169.200897	127.010345
162.319565	170.631409	127.754211
162.371994	173.702240	140.533447
162.424422	165.767670	137.596130
162.476851	165.653229	134.792328
162.529280	169.868469	142.593384
162.581709	165.958405	138.149261
162.634138	183.124542	139.846802
162.686566	193.080902	137.557983
162.738995	161.590576	124.187469
162.791424	174.045563	143.718719
162.843853	190.773010	141.010284
162.896282	165.252686	129.833221
162.948710	165.939331	139.064789
163.001139	177.307129	153.236389
163.053568	180.206299	135.898590
163.105997	165.920258	121.517181
163.158426	170.860291	136.756897
163.210854	180.606842	130.958557
163.263283	169.544220	138.568878
163.315712	176.029205	135.669708
163.368141	175.800323	136.337280
163.420570	172.691345	142.745972
163.472998	158.691406	124.950409
163.525427	169.811249	142.898560
163.577856	176.429749	142.860413
163.630285	166.492462	135.612488
163.682714	183.811188	143.833160
163.735142	171.890259	132.598877
163.787571	164.699554	140.132904
163.840000	167.636871	132.694244
163.892429	172.271729	137.805939
163.944858	178.241730	138.950348
163.997286	188.922882	136.642456
164.049715	171.031952	143.108368
164.102144	180.053711	136.070251
164.154573	182.304382	143.737793
164.207002	188.598633	137.729645
164.259430	173.625946	136.508942
164.311859	188.961029	144.958496
164.364288	178.794861	142.097473
164.416717	174.846649	149.078369
164.469146	162.105560	128.860474
164.521574	173.244476	140.361786
164.574003	186.080933	130.100250
164.626432	171.012878	134.792328
164.678861	171.775818	130.043030
164.731290	174.102783	134.258270
164.783718	170.745850	127.582550
164.836147	175.819397	140.209198
164.888576	168.819427	141.506195
164.941005	168.151855	132.522583
164.993434	175.209045	140.857697
165.045862	181.198120	158.882141
165.098291	178.356171	134.525299
165.150720	161.743164	129.737854
165.203149	176.219940	130.329132
165.255578	167.865753	129.432678
165.308006	180.530548	137.615204
165.360435	178.585052	137.271881
165.412864	176.029205	133.647919
165.465293	165.977478	130.481720
165.517722	175.933838	139.484406
165.570150	168.800354	142.707825
165.622579	176.334381	139.923096
165.675008	171.585083	145.492554
165.727437	168.342590	137.920380
165.779866	170.459747	144.233704
165.832294	173.339844	138.950348
165.884723	168.495178	143.566132
165.937152	179.672241	135.517120
165.989581	185.756683	141.677856
166.042010	173.835754	138.740540
166.094438	170.803070	129.890442
166.146867	157.566071	136.184692
166.199296	183.200836	133.991241
166.251725	174.045563	140.743256
166.304154	171.890259	138.282776
166.356582	171.680450	132.732391
166.409011	168.495178	137.519836
166.461440	161.647797	139.141083
166.513869	166.950226	142.784119
166.566298	167.942047	136.203766
166.618726	174.427032	156.593323
166.671155	173.835754	146.656036
166.723584	166.587830	131.912231
166.776013	185.089111	139.656067
166.828442	166.759491	141.716003
166.880870	181.236267	150.718689
166.933299	174.026489	134.181976
166.985728	173.015594	135.765076
167.038157	171.508789	132.713318
167.090586	175.724030	139.007568
167.143014	172.634125	134.983063
167.195443	162.906647	136.508942
167.247872	174.121857	150.318146
167.300301	182.094574	129.776001
167.352730	173.225403	138.034821
167.405158	160.675049	139.083862
167.457587	173.397064	132.427216
167.510016	174.293518	138.473511
167.562445	177.822113	138.416290
167.614874	170.936584	133.705139
167.667302	170.803070	134.925842
167.719731	179.538727	131.893158
167.772160	166.378021	139.751434
167.824589	169.696808	130.119324
167.877018	171.756744	141.677856
167.929446	175.914764	140.647888
167.981875	161.590576	135.345459
168.034304	178.604126	145.111084
168.086733	167.293549	142.536163
168.139162	170.974731	136.585236
168.191590	170.707703	138.607025
168.244019	167.465210	136.928558
168.296448	175.876617	138.931274
168.348877	162.582397	132.122040
168.401306	168.800354	139.636993
168.453734	175.132751	131.626129
168.506163	156.841278	137.481689
168.558592	180.912018	139.827728
168.611021	181.274414	144.767761
168.663450	180.931091	132.579803
168.715878	167.274475	135.517120
168.768307	175.189972	124.092102
168.820736	173.416138	136.241913
168.873165	165.576935	136.413574
168.925594	176.219940	130.271912
168.978022	185.890198	139.045715
169.030451	174.751282	141.487122
169.082880	178.928375	145.225525
169.135309	174.541473	148.200989
169.187738	160.923004	138.797760
169.240166	171.051025	145.130157
169.292595	170.402527	136.470795
169.345024	164.546967	131.015778
169.397453	165.615082	132.198334
169.449882	160.636902	127.220154
169.502310	173.091888	148.658752
169.554739	170.764923	134.410858
169.607168	170.879364	137.233734
169.659597	169.258118	145.416260
169.712026	179.481506	139.942169
169.764454	169.830322	134.239197
169.816883	170.917511	132.751465
169.869312	181.922913	140.018463
169.921741	180.740356	137.767792
169.974170	173.683167	134.201050
170.026598	164.642334	133.590698
170.079027	178.165436	140.361786
170.131456	172.653198	143.070221
170.183885	171.451569	144.519806
170.236314	174.312592	136.585236
170.288742	176.105499	141.029358
170.341171	170.211792	135.822296
170.393600	166.740417	136.222839
170.446029	175.895691	141.391754
170.498458	166.454315	133.686066
170.550886	168.781281	135.593414
170.603315	193.004608	145.626068
170.655744	176.963806	135.002136
170.708173	170.669556	140.476227
170.760602	180.892944	131.263733
170.813030	164.756775	140.914917
170.865459	176.792145	142.459869
170.917888	177.803040	133.876801
170.970317	177.345276	127.372742
171.022746	159.263611	142.059326
171.075174	183.582306	143.032074
171.127603	157.356262	135.993958
171.180032	168.457031	146.312714
171.232461	188.789368	145.778656
171.284890	178.737640	148.372650
171.337318	170.402527	129.184723
171.389747	178.184509	145.797729
171.442176	165.767670	139.904022
171.494605	181.484222	135.898590
171.547034	172.519684	139.122009
171.599462	175.933838	143.756866
171.651891	167.865753	139.389038
171.704320	168.857574	131.416321
171.756749	180.149078	127.582550
171.809178	175.361633	134.620667
171.861606	182.018280	143.356323
171.914035	172.004700	137.786865
171.966464	177.631378	137.996674
172.018893	182.666779	145.149231
172.071322	168.457031	134.620667
172.123750	178.031921	143.203735
172.176179	183.677673	154.094696
172.228608	176.792145	146.598816
172.281037	164.489746	131.683350
172.333466	174.655914	142.021179
172.385894	164.566040	124.263763
172.438323	178.813934	135.498047
172.490752	159.683228	138.454437
172.543181	169.544220	141.983032
172.595610	176.944733	144.233704
172.648038	179.595947	138.874054
172.700467	171.985626	140.056610
172.752896	172.786713	142.955780
172.805325	183.029175	151.653290
172.857754	172.290802	146.732330
172.910182	176.677704	140.838623
172.962611	181.217194	138.950348
173.015040	171.546936	133.533478
173.067469	186.214447	136.108398
173.119898	166.740417	130.481720
173.172326	168.094635	139.770508
173.224755	172.481537	139.312744
173.277184	177.478790	136.699677
173.329613	170.536041	133.266449
173.382042	167.064667	137.710571
173.434470	170.764923	138.664246
173.486899	167.579651	137.767792
173.539328	171.852112	151.271820
173.591757	174.713135	136.299133
173.644186	182.094574	141.620636
173.696614	170.650482	137.386322
173.749043	171.070099	140.552521
173.801472	164.337158	141.696930
173.853901	173.969269	126.972198
173.906330	182.437897	155.200958
173.958758	171.146393	137.767792
174.011187	182.857513	139.579773
174.063616	159.416199	121.173859
174.116045	179.271698	137.519836
174.168474	179.424286	139.255524
174.220902	178.203583	137.310028
174.273331	163.135529	130.634308
174.325760	160.236359	144.882202
174.378189	170.993805	131.320953
174.430618	174.865723	129.089355
174.483046	174.293518	137.519836
174.535475	172.214508	139.713287
174.587904	174.274445	139.942169
174.640333	167.427063	133.113861
174.692762	169.143677	135.250092
174.745190	171.871185	135.383606
174.797619	174.598694	137.920380
174.850048	184.364319	142.059326
174.902477	178.871155	137.691498
174.954906	165.805817	137.062073
175.007334	168.209076	135.746002
175.059763	165.901184	133.190155
175.112192	168.952942	145.854950
175.164621	168.724060	139.904022
175.217050	176.944733	135.440826
175.269478	164.890289	138.072968
175.321907	163.116455	138.168335
175.374336	172.309875	137.481689
175.426765	162.410736	144.195557
175.479194	176.467896	140.476227
175.531622	184.173584	144.958496
175.584051	167.160034	134.487152
175.636480	184.135437	141.868591
175.688909	168.933868	129.432678
175.741338	181.236267	148.754120
175.793766	158.634186	146.121979
175.846195	172.672272	149.993896
175.898624	171.203613	145.473480
175.951053	169.734955	134.468079
176.003482	168.132782	137.920380
176.055910	179.843903	142.498016
176.108339	160.217285	124.988556
176.160768	183.773041	138.320923
176.213197	168.571472	136.280060
176.265626	175.399780	134.315491
176.318054	174.770355	143.051147
176.370483	177.135468	135.440826
176.422912	171.203613	144.863129
176.475341	164.508820	139.675140
176.527770	175.685883	137.977600
176.580198	180.053711	143.680573
176.632627	175.876617	130.481720
176.685056	161.247253	135.498047
176.737485	168.056488	138.568878
176.789914	177.402496	141.582489
176.842342	189.094543	146.656036
176.894771	170.459747	140.743256
176.947200	169.487000	133.934021
176.999629	171.318054	127.754211
177.052058	167.713165	136.604309
177.104486	184.516907	135.097504
177.156915	174.674988	133.533478
177.209344	175.590515	146.560669
177.261773	171.318054	140.590668
177.314202	163.574219	134.315491
177.366630	176.677704	146.198273
177.419059	172.119141	137.424469
177.471488	169.353485	138.416290
177.523917	164.012909	128.002167
177.576346	176.944733	148.620605
177.628774	172.042847	137.805939
177.681203	183.029175	146.980286
177.733632	175.209045	142.154694
177.786061	170.898437	141.181946
177.838490	174.808502	132.732391
177.890918	167.560577	141.315460
177.943347	184.001923	146.408081
177.995776	170.707703	132.179260
178.048205	173.759460	137.977600
178.100634	171.852112	137.424469
178.153062	180.912018	139.484406
178.205491	162.258148	135.231018
178.257920	176.868439	137.882233
178.310349	171.356201	131.835937
178.362778	188.121796	136.470795
178.415206	181.217194	139.694214
178.467635	175.590515	146.064758
178.520064	180.912018	142.459869
178.572493	188.999176	139.598846
178.624922	182.018280	147.609711
178.677350	171.775818	131.092072
178.729779	177.383423	154.933929
178.782208	173.492432	143.470764
178.834637	176.296234	144.577026
178.887066	175.704956	144.767761
178.939494	187.397003	147.705078
178.991923	167.827606	131.721497
179.044352	181.159973	142.936707
179.096781	169.487000	138.587952
179.149210	163.383484	127.773285
179.201638	167.922974	132.465363
179.254067	168.075562	138.626099
179.306496	169.944763	142.364502
179.358925	177.173615	134.887695
179.411354	186.405182	140.953064
179.463782	164.012909	128.307343
179.516211	171.165466	135.536194
179.568640	175.247192	133.800507
179.621069	174.446106	137.405396
179.673498	172.233582	130.329132
179.725926	170.383453	137.062073
179.778355	165.023804	133.438110
179.830784	173.492432	154.724121
179.883213	178.127289	147.056580
179.935642	176.601410	128.707886
179.988070	184.860229	149.040222
180.040499	184.230804	140.552521
180.092928	179.824829	141.468048
180.145357	183.029175	143.566132
180.197786	172.672272	131.912231
180.250214	170.898437	132.160187
180.302643	182.018280	143.413544
180.355072	174.331665	136.241913
180.407501	189.018250	144.824982
180.459930	170.650482	136.184692
180.512358	167.579651	134.849548
180.564787	183.353424	135.860443
180.617216	173.072815	139.141083
180.669645	187.911987	141.334534
180.722074	164.337158	135.784149
180.774502	171.604156	143.814087
180.826931	175.914764	140.285492
180.879360	181.579590	145.244598
180.931789	159.435272	129.623413
180.984218	174.121857	133.113861
181.036646	182.418823	142.021179
181.089075	173.110962	141.868591
181.141504	167.331696	138.893127
181.193933	168.170929	133.895874
181.246362	169.963837	133.514404
181.298790	162.086487	138.301849
181.351219	181.713104	135.345459
181.403648	179.805756	144.081116
181.456077	176.525116	145.416260
181.508506	186.786652	141.162872
181.560934	174.980164	121.498108
181.613363	168.666840	140.647888
181.665792	171.546936	132.293701
181.718221	163.002014	133.094788
181.770650	173.187256	135.746002
181.823078	169.372559	127.010345
181.875507	174.045563	143.013000
181.927936	180.377960	141.372681
181.980365	182.189941	137.386322
182.032794	172.157288	140.953064
182.085222	171.661377	140.514374
182.137651	171.337128	143.527985
182.190080	175.704956	140.857697
182.242509	184.001923	143.795013
182.294938	185.718536	140.876770
182.347366	169.925690	130.233765
182.399795	180.549622	143.795013
182.452224	174.388885	131.683350
182.504653	171.527863	146.903992
182.557082	170.574188	139.865875
182.609510	177.726746	145.740509
182.661939	167.121887	135.860443
182.714368	170.192719	132.369995
182.766797	169.391632	139.808655
182.819226	168.876648	129.966736
182.871654	172.557831	133.876801
182.924083	166.435242	135.078430
182.976512	173.816681	130.958557
183.028941	165.119171	136.165619
183.081370	165.462494	131.492615
183.133798	179.786682	143.356323
183.186227	172.119141	134.906769
183.238656	171.737671	136.470795
183.291085	168.762207	145.454407
183.343514	177.040100	138.511658
183.395942	172.309875	140.266418
183.448371	179.309845	136.775970
183.500800	170.764923	137.176514
183.553229	177.593231	132.179260
183.605658	171.394348	130.500793
183.658086	175.952911	130.348206
183.710515	172.519684	138.473511
183.762944	179.996490	134.220123
183.815373	172.424316	138.301849
183.867802	189.895630	141.563416
183.920230	182.380676	147.571564
183.972659	166.931152	143.222809
184.025088	175.266266	137.386322
184.077517	164.318085	129.566193
184.129946	167.999268	139.617920
184.182374	169.982910	137.157440
184.234803	180.416107	145.721436
184.287232	177.536011	143.051147
184.339661	163.555145	127.182007
184.392090	165.691376	135.536194
184.444518	170.288086	134.353638
184.496947	176.773071	141.220093
184.549376	177.974701	138.282776
184.601805	177.173615	140.113831
184.654234	172.824860	143.394470
184.706662	187.473297	138.549805
184.759091	172.691345	133.609772
184.811520	181.007385	147.876740
184.863949	171.070099	144.348145
184.916378	175.151825	134.391785
184.968806	169.467926	137.081146
185.021235	178.718567	137.901306
185.073664	160.923004	133.190155
185.126093	174.903870	132.999420
185.178522	171.146393	126.914978
185.230950	185.031891	141.868591
185.283379	165.309906	138.339996
185.335808	176.868439	143.203735
185.388237	151.824951	128.154755
185.440666	165.519714	130.558014
185.493094	172.328949	141.830444
185.545523	167.713165	125.045776
185.597952	190.372467	152.721405
185.650381	178.337097	146.713257
185.702810	171.699524	147.209167
185.755238	169.219971	143.566132
185.807667	182.876587	134.201050
185.860096	173.244476	134.391785
185.912525	178.260803	157.279968
185.964954	167.808533	134.468079
186.017382	162.887573	151.691437
186.069811	175.228119	138.034821
186.122240	177.745819	148.506165
186.174669	182.151794	140.857697
186.227098	185.031891	148.506165
186.279526	168.781281	135.459900
186.331955	164.604187	139.141083
186.384384	177.173615	145.454407
186.436813	171.642303	139.522552
186.489242	166.301727	145.816803
186.541670	169.887543	134.639740
186.594099	179.424286	131.988525
186.646528	174.026489	141.353607
186.698957	169.849396	131.225586
186.751386	178.527832	136.547089
186.803814	162.906647	143.795013
186.856243	171.852112	138.492584
186.908672	175.094604	140.151978
186.961101	181.217194	133.361816
187.013530	183.372498	144.176483
187.065958	185.470581	134.563446
187.118387	188.388824	143.241882
187.170816	175.571442	141.677856
187.223245	176.792145	131.454468
187.275674	173.015594	138.835907
187.328102	178.298950	139.656067
187.380531	181.083679	136.528015
187.432960	182.228088	136.680603
187.485389	173.416138	149.135590
187.537818	188.865662	129.795074
187.590246	180.644989	140.399933
187.642675	167.484283	140.762329
187.695104	180.740356	135.173798
187.747533	171.661377	134.849548
187.799962	174.751282	131.664276
187.852390	183.811188	148.868561
187.904819	156.574249	134.925842
187.957248	180.759430	146.446228
188.009677	176.658630	133.800507
188.062106	172.233582	131.778717
188.114534	175.342560	140.895844
188.166963	167.350769	125.694275
188.219392	174.503326	133.724213
188.271821	182.342529	140.628815
188.324250	172.595978	137.367249
188.376678	172.805786	136.737823
188.429107	177.631378	145.759583
188.481536	164.203644	127.334595
188.533965	172.004700	140.075684
188.586394	174.121857	140.953064
188.638822	175.323486	132.884979
188.691251	175.647736	147.724152
188.743680	172.367096	138.092041
188.796109	174.007416	135.917664
188.848538	183.506012	151.844025
188.900966	173.454285	135.917664
188.953395	177.860260	142.517090
189.005824	164.394379	135.574341
189.058253	173.492432	142.116547
189.110682	171.127319	137.023926
189.163110	179.805756	136.814117
189.215539	179.557800	131.340027
189.267968	179.157257	135.383606
189.320397	173.568726	139.636993
189.372826	171.890259	130.577087
189.425254	165.519714	130.882263
189.477683	170.879364	147.171021
189.530112	171.661377	130.805969
189.582541	178.718567	144.634247
189.634970	169.105530	136.623383
189.687398	186.119080	137.462616
189.739827	180.187225	137.405396
189.792256	166.664124	132.312775
189.844685	165.576935	139.389038
189.897114	179.920197	132.045746
189.949542	192.718506	148.773193
190.001971	175.743103	137.615204
190.054400	181.274414	141.201019
190.106829	159.130096	141.830444
190.159258	172.843933	138.244629
190.211686	155.887604	129.203796
190.264115	177.555084	141.029358
190.316544	184.097290	150.966644
190.368973	165.939331	134.830475
190.421402	174.026489	134.506226
190.473830	172.920227	130.977631
190.526259	179.023743	147.514343
190.578688	176.296234	130.100250
190.631117	177.974701	138.626099
190.683546	174.312592	141.754150
190.735974	172.004700	141.601562
190.788403	184.440613	135.478973
190.840832	174.827576	132.160187
190.893261	173.187256	136.508942
190.945690	171.718597	134.468079
190.998118	164.241791	155.220032
191.050547	164.127350	130.271912
191.102976	175.170898	141.506195
191.155405	162.105560	125.827789
191.207834	178.756714	144.672394
191.260262	181.045532	131.320953
191.312691	186.958313	141.296387
191.365120	168.819427	148.887634
191.417549	176.334381	140.895844
191.469978	185.890198	138.587952
191.522406	182.800293	137.882233
191.574835	170.326233	132.923126
191.627264	182.609558	141.735077
191.679693	168.209076	138.511658
191.732122	175.170898	132.617950
191.784550	176.677704	134.944916
191.836979	177.288055	132.827759
191.889408	186.557770	149.307251
191.941837	180.034637	149.765015
191.994266	172.748566	136.718750
192.046694	180.892944	148.086548
192.099123	182.456970	142.478943
192.151552	176.830292	142.498016
192.203981	168.952942	134.372711
192.256410	163.707733	122.013092
192.308838	170.516968	135.726929
192.361267	149.745941	131.454468
192.413696	182.170868	143.146515
192.466125	165.004730	133.666992
192.518554	172.519684	146.007538
192.570982	176.086426	135.974884
192.623411	168.476105	136.604309
192.675840	171.985626	131.702423
192.728269	169.258118	141.353607
192.780698	180.778503	135.688782
192.833126	171.375275	128.345490
192.885555	174.121857	139.770508
192.937984	173.778534	148.372650
192.990413	167.446136	126.705170
193.042842	162.811279	130.462646
193.095270	163.269043	134.773254
193.147699	176.296234	134.105682
193.200128	170.021057	130.691528
193.252557	178.222656	142.269135
193.304986	168.876648	146.064758
193.357414	172.576904	142.917633
193.409843	170.421600	139.408112
193.462272	181.236267	146.999359
193.514701	181.636810	138.645172
193.567130	194.168091	145.683289
193.619558	173.606873	130.214691
193.671987	174.236298	147.056580
193.724416	185.432434	140.342712
193.776845	165.309906	146.350861
193.829274	172.214508	135.707855
193.881702	166.931152	138.034821
193.934131	168.685913	139.350891
193.986560	178.508759	146.999359
194.038989	162.601471	130.939484
194.091418	178.146362	147.857666
194.143846	184.116364	141.887665
194.196275	181.007385	142.288208
194.248704	167.999268	135.383606
194.301133	172.157288	137.786865
194.353562	183.734894	142.841339
194.405990	176.906586	134.830475
194.458419	165.863037	130.023956
194.510848	178.661346	143.623352
194.563277	174.179077	138.416290
194.615706	164.813995	135.116577
194.668134	175.724030	133.438110
194.720563	176.887512	135.002136
194.772992	178.527832	145.664215
194.825421	189.514160	148.544312
194.877850	183.830261	135.879517
194.930278	166.835785	135.383606
194.982707	180.072784	138.206482
195.035136	169.620514	143.203735
195.087565	177.688599	139.484406
195.139994	182.952881	146.560669
195.192422	173.015594	133.552551
195.244851	174.236298	139.617920
195.297280	188.713074	140.514374
195.349709	181.427002	135.440826
195.402138	182.018280	143.680573
195.454566	169.963837	149.898529
195.506995	182.571411	131.759644
195.559424	175.647736	133.686066
195.611853	160.102844	132.904053
195.664282	163.402557	131.301880
195.716710	177.803040	145.397186
195.769139	180.702209	142.135620
195.821568	168.704987	141.010284
195.873997	175.037384	129.756927
195.926426	170.192719	128.746033
195.978854	161.724091	126.304626
196.031283	178.546906	140.609741
196.083712	177.974701	143.508911
196.136141	178.241730	141.143799
196.188570	182.952881	126.590729
196.240998	170.631409	140.132904
196.293427	178.031921	146.408081
196.345856	183.677673	135.498047
196.398285	173.225403	125.236511
196.450714	165.615082	141.677856
196.503142	181.388855	136.566162
196.555571	172.119141	135.612488
196.608000	166.797638	137.653351
196.660429	185.317993	149.440765
196.712858	189.704895	150.432587
196.765286	179.672241	140.609741
196.817715	170.707703	139.522552
196.870144	163.269043	148.296356
196.922573	186.405182	138.397217
196.975002	166.034698	131.454468
197.027430	182.342529	140.151978
197.079859	175.151825	140.857697
197.132288	158.405304	131.034851
197.184717	172.786713	131.626129
197.237146	172.061920	132.160187
197.289574	172.729492	128.059387
197.342003	177.230835	147.705078
197.394432	168.895721	135.231018
197.446861	184.211731	132.102966
197.499290	186.424255	146.503448
197.551718	185.852051	135.498047
197.604147	174.541473	135.517120
197.656576	166.110992	143.184662
197.709005	170.383453	137.004852
197.761434	169.429779	133.934021
197.813862	168.724060	124.244690
197.866291	174.236298	137.691498
197.918720	172.271729	136.661530
197.971149	156.841278	131.912231
198.023578	171.203613	130.519867
198.076006	171.527863	137.672424
198.128435	166.530609	121.860504
198.180864	186.195374	142.116547
198.233293	167.007446	134.601593
198.285722	174.942017	138.664246
198.338150	184.249878	132.675171
198.390579	180.644989	133.323669
198.443008	170.955658	130.004883
198.495437	175.189972	137.996674
198.547866	181.789398	135.364532
198.600294	165.367126	129.928589
198.652723	187.263489	138.511658
198.705152	170.116425	149.574280
198.757581	177.268982	132.102966
198.810010	170.516968	133.972168
198.862438	182.628632	140.953064
198.914867	169.582367	137.615204
198.967296	181.293488	144.920349
199.019725	176.239014	139.141083
199.072154	175.514221	132.541656
199.124582	175.552368	136.299133
199.177011	165.348053	130.805969
199.229440	175.781250	137.767792
199.281869	164.089203	126.914978
199.334298	194.549561	137.939453
199.386726	181.293488	134.963989
199.439155	173.397064	139.694214
199.491584	178.775787	135.841370
199.544013	182.628632	140.705109
199.596442	166.645050	131.072998
199.648870	171.413422	138.339996
199.701299	164.623260	126.533508
199.753728	184.135437	135.345459
199.806157	177.879333	140.457153
199.858586	164.604187	134.029388
199.911014	168.380737	136.795044
199.963443	179.290771	133.914948
200.015872	179.996490	143.184662
200.068301	180.873871	140.323639
200.120730	166.378021	124.301910
200.173158	172.920227	141.448975
200.225587	187.625885	146.732330
200.278016	166.778564	133.018494
200.330445	179.500580	144.100189
200.382874	163.974762	129.070282
200.435302	175.342560	137.348175
200.487731	185.585022	151.176453
200.540160	175.323486	130.310059
200.592589	171.813965	144.653320
200.645018	186.920166	148.811340
200.697446	177.574158	141.086578
200.749875	183.906555	149.116516
200.802304	174.884796	145.168304
200.854733	172.824860	134.849548
200.907162	176.448822	142.745972
200.959590	173.454285	134.563446
201.012019	168.838501	135.536194
201.064448	181.045532	134.963989
201.116877	174.102783	140.933990
201.169306	172.195435	132.026672
201.221734	174.255371	137.100220
201.274163	172.042847	136.661530
201.326592	159.664154	122.795105
201.379021	166.530609	139.255524
201.431450	164.508820	134.963989
201.483878	178.108215	134.372711
201.536307	183.525085	154.228210
201.588736	180.625916	137.023926
201.641165	169.467926	144.462585
201.693594	177.402496	146.293640
201.746022	184.249878	143.718719
201.798451	175.094604	131.645203
201.850880	167.655945	133.724213
201.903309	171.928406	127.315521
201.955738	181.636810	133.571625
202.008166	183.506012	136.680603
202.060595	174.961090	133.228302
202.113024	157.833099	133.209229
202.165453	191.783905	138.931274
202.217882	170.688629	131.206512
202.270310	178.546906	149.135590
202.322739	179.653168	139.007568
202.375168	174.255371	143.184662
202.427597	179.500580	146.923065
202.480026	166.778564	130.538940
202.532454	179.767609	148.277283
202.584883	163.059235	136.966705
202.637312	172.100067	131.759644
202.689741	178.184509	147.171021
202.742170	170.192719	140.285492
202.794598	176.887512	140.342712
202.847027	173.969269	130.157471
202.899456	167.179108	133.171082
202.951885	172.252655	133.743286
203.004314	168.724060	143.222809
203.056742	169.696808	138.244629
203.109171	174.217224	135.917664
203.161600	178.966522	138.816833
203.214029	174.961090	137.519836
203.266458	167.903900	127.010345
203.318886	179.939270	143.814087
203.371315	173.130035	141.925812
203.423744	175.685883	134.429932
203.476173	162.563324	137.462616
203.528602	161.762238	130.748749
203.581030	178.737640	133.953094
203.633459	173.645020	143.871307
203.685888	171.165466	129.108429
203.738317	174.179077	140.800476
203.790746	181.293488	134.029388
203.843174	175.666809	131.645203
203.895603	164.031982	132.484436
203.948032	169.658661	137.386322
204.000461	172.157288	137.596130
204.052890	168.018341	134.792328
204.105318	172.977448	135.307312
204.157747	171.642303	140.285492
204.210176	173.721313	153.980255
204.262605	167.121887	127.773285
204.315034	178.394318	141.735077
204.367462	168.018341	135.059357
204.419891	166.339874	134.105682
204.472320	174.236298	127.582550
204.524749	185.565948	136.127472
204.577178	167.732239	129.280090
204.629606	174.217224	130.519867
204.682035	163.421631	129.890442
204.734464	183.849335	135.879517
204.786893	171.298981	140.209198
204.839322	174.713135	135.860443
204.891750	157.527924	132.923126
204.944179	174.884796	144.615173
204.996608	172.233582	132.484436
205.049037	172.061920	138.225555
205.101466	167.922974	138.454437
205.153894	169.792175	140.705109
205.206323	164.775848	139.160156
205.258752	161.781311	132.045746
205.311181	169.315338	126.132965
205.363610	174.598694	138.912201
205.416038	178.737640	136.165619
205.468467	176.239014	129.737854
205.520896	174.865723	136.737823
205.573325	166.854858	133.209229
205.625754	175.437927	140.190125
205.678182	167.274475	139.446259
205.730611	171.871185	130.176544
205.783040	176.906586	140.151978
205.835469	172.119141	148.315430
205.887898	159.854889	136.928558
205.940326	180.740356	136.070251
205.992755	167.217255	137.062073
206.045184	168.819427	134.792328
206.097613	175.113678	120.086670
206.150042	163.574219	133.647919
206.202470	177.249908	139.522552
206.254899	160.121918	134.029388
206.307328	175.476074	139.122009
206.359757	169.849396	126.838684
206.412186	172.481537	132.446289
206.464614	176.410675	133.838654
206.517043	165.042877	124.874115
206.569472	175.590515	140.075684
206.621901	174.999237	136.775970
206.674330	171.489716	131.378174
206.726758	180.282593	150.051117
206.779187	167.274475	132.961273
206.831616	184.879303	143.089294
206.884045	177.783966	133.628845
206.936474	167.789459	140.972137
206.988902	166.168213	135.993958
207.041331	175.476074	138.263702
207.093760	184.669495	138.912201
207.146189	181.140900	146.541595
207.198618	161.018372	133.380890
207.251046	170.440674	139.961243
207.303475	161.495209	133.152008
207.355904	173.759460	142.669678
207.408333	176.219940	135.307312
207.460762	162.811279	136.146545
207.513190	193.977356	140.857697
207.565619	184.669495	132.675171
207.618048	168.399811	136.413574
207.670477	171.012878	127.296448
207.722906	170.917511	133.838654
207.775334	174.312592	126.667023
207.827763	175.685883	137.805939
207.880192	162.181854	133.533478
207.932621	173.721313	129.737854
207.985050	187.282562	143.127441
208.037478	175.018311	137.672424
208.089907	168.704987	129.489899
208.142336	174.369812	136.356354
208.194765	174.732208	130.500793
208.247194	171.718597	145.645142
208.299622	179.977417	130.310059
208.352051	173.892975	136.642456
208.404480	180.110931	141.792297
208.456909	180.397034	138.454437
208.509338	173.110962	132.141113
208.561766	172.100067	138.359070
208.614195	176.582336	138.072968
208.666624	180.816650	140.247345
208.719053	178.585052	148.067474
208.771482	176.544189	134.124756
208.823910	169.010162	137.348175
208.876339	159.034729	138.282776
208.928768	193.672180	142.822266
208.981197	176.467896	142.021179
209.033626	170.059204	136.642456
209.086054	170.288086	134.792328
209.138483	168.781281	131.263733
209.190912	185.794830	145.778656
209.243341	166.435242	128.479004
209.295770	168.914795	137.653351
209.348198	166.873932	128.669739
209.400627	180.568695	140.209198
209.453056	168.628693	141.353607
209.505485	153.617859	135.002136
209.557914	167.694092	139.808655
209.610342	191.135406	135.269165
209.662771	180.854797	142.955780
209.715200	173.892975	129.871368
209.767629	176.448822	136.737823
209.820058	174.217224	141.925812
209.872486	163.059235	132.999420
209.924915	189.342499	139.560699
209.977344	168.285370	139.884949
210.029773	186.862946	136.566162
210.082202	177.574158	139.350891
210.134630	177.059174	140.094757
210.187059	162.124634	124.835968
210.239488	177.822113	140.056610
210.291917	173.053741	136.890411
210.344346	170.364380	131.435394
210.396774	164.432526	136.184692
210.449203	177.593231	130.786896
210.501632	173.625946	141.067505
210.554061	171.146393	138.072968
210.606490	192.184448	141.029358
210.658918	172.672272	143.356323
210.711347	175.743103	145.378113
210.763776	165.920258	131.378174
210.816205	165.233612	132.408142
210.868634	179.271698	132.999420
210.921062	165.576935	135.993958
210.973491	161.399841	139.198303
211.025920	175.056458	136.032104
211.078349	177.097321	143.661499
211.130778	179.500580	137.443542
211.183206	160.808563	138.664246
211.235635	175.170898	135.898590
211.288064	179.138184	146.102905
211.340493	167.293549	150.222778
211.392922	173.664093	135.192871
211.445350	171.756744	128.517151
211.497779	172.519684	136.356354
211.550208	165.443420	130.825043
211.602637	182.094574	138.740540
211.655066	181.312561	136.966705
211.707494	177.650452	137.233734
211.759923	169.239044	133.914948
211.812352	167.255402	138.072968
211.864781	173.988342	147.190094
211.917210	167.541504	133.323669
211.969638	176.219940	132.923126
212.022067	167.846680	131.168365
212.074496	167.255402	138.511658
212.126925	167.808533	149.574280
212.179354	170.440674	131.359100
212.231782	164.794922	131.912231
212.284211	182.933807	131.740570
212.336640	184.974670	132.656097
212.389069	183.010101	136.852264
212.441498	174.369812	136.318207
212.493926	173.702240	133.953094
212.546355	161.304474	130.519867
212.598784	175.952911	138.816833
212.651213	167.903900	138.950348
212.703642	175.399780	137.443542
212.756070	182.590485	133.647919
212.808499	167.884827	136.737823
212.860928	183.506012	143.985748
212.913357	165.271759	124.511719
212.965786	163.726807	133.686066
213.018214	168.857574	133.228302
213.070643	159.931183	135.993958
213.123072	179.405212	149.173737
213.175501	170.745850	134.181976
213.227930	171.566010	130.252838
213.280358	168.266296	140.552521
213.332787	175.590515	141.353607
213.385216	178.661346	129.413605
213.437645	178.432465	140.972137
213.490074	178.966522	134.868622
213.542502	160.923004	135.879517
213.594931	175.952911	136.928558
213.647360	170.478821	129.966736
213.699789	175.533295	139.064789
213.752218	185.852051	144.615173
213.804646	169.448853	139.656067
213.857075	183.544159	145.645142
213.909504	186.309814	143.222809
213.961933	179.920197	148.963928
214.014362	181.503296	132.617950
214.066790	184.459686	148.315430
214.119219	181.026459	138.759613
214.171648	172.576904	133.686066
214.224077	186.481476	142.059326
214.276506	166.606903	135.746002
214.328934	176.067352	145.587921
214.381363	167.846680	137.939453
214.433792	175.418854	139.961243
214.486221	171.737671	144.577026
214.538650	177.497864	133.934021
214.591078	164.775848	141.086578
214.643507	176.792145	138.092041
214.695936	174.903870	134.239197
214.748365	167.655945	138.149261
214.800794	177.326202	129.318237
214.853222	169.410706	135.498047
214.905651	168.552399	139.389038
214.958080	177.326202	134.220123
215.010509	172.729492	139.579773
215.062938	178.775787	146.160126
215.115366	184.059143	142.517090
215.167795	170.783997	132.942200
215.220224	173.435211	135.555267
215.272653	177.516937	133.361816
215.325082	185.508728	151.119232
215.377510	159.301758	127.429962
215.429939	177.974701	145.301819
215.482368	155.372620	123.767853
215.534797	168.094635	139.122009
215.587226	164.890289	128.993988
215.639654	174.293518	125.255585
215.692083	175.895691	139.636993
215.744512	195.617676	140.590668
215.796941	162.963867	134.429932
215.849370	178.623199	135.726929
215.901798	165.977478	135.002136
215.954227	186.004639	139.942169
216.006656	176.677704	143.318176
216.059085	182.342529	144.519806
216.111514	161.228180	124.301910
216.163942	173.740387	144.557953
216.216371	172.233582	133.724213
216.268800	165.367126	137.615204
216.321229	168.190002	140.342712
216.373658	170.345306	141.372681
216.426086	164.546967	133.991241
216.478515	159.664154	118.637085
216.530944	177.669525	137.023926
216.583373	165.710449	143.451691
216.635802	184.993744	140.285492
216.688230	177.974701	128.879547
216.740659	174.617767	132.560730
216.793088	177.402496	138.416290
216.845517	190.887451	150.413513
216.897946	169.734955	137.290955
216.950374	185.432434	143.299103
217.002803	168.495178	143.070221
217.055232	186.805725	137.958527
217.107661	170.764923	143.756866
217.160090	174.217224	137.805939
217.212518	170.841217	136.032104
217.264947	172.023773	144.577026
217.317376	173.778534	140.361786
217.369805	176.944733	131.759644
217.422234	177.078247	119.304657
217.474662	176.486969	142.707825
217.527091	168.113708	137.863159
217.579520	185.203552	139.617920
217.631949	176.601410	131.015778
217.684378	163.745880	138.072968
217.736806	175.476074	142.383575
217.789235	174.808502	127.658844
217.841664	175.132751	134.811401
217.894093	169.086456	131.797791
217.946522	160.179138	138.988495
217.998950	177.154541	132.656097
218.051379	171.394348	138.301849
218.103808	148.448944	139.141083
218.156237	150.241852	136.566162
218.208666	170.421600	135.936737
218.261094	158.081055	135.440826
218.313523	183.296204	141.754150
218.365952	173.530579	143.051147
218.418381	177.669525	138.740540
218.470810	172.100067	138.912201
218.523238	164.165497	137.634277
218.575667	168.304443	138.187408
218.628096	177.516937	140.380859
218.680525	168.590546	139.732361
218.732954	194.110870	144.882202
218.785382	157.928467	135.173798
218.837811	183.601379	138.015747
218.890240	175.228119	135.211945
218.942669	168.838501	137.691498
218.995098	171.756744	136.413574
219.047526	172.805786	143.165588
219.099955	184.326172	141.067505
219.152384	180.358887	145.359039
219.204813	174.179077	133.056641
219.257242	178.432465	129.737854
219.309670	166.091919	144.958496
219.362099	174.541473	144.805908
219.414528	185.985565	141.105652
219.466957	168.895721	136.985779
219.519386	170.669556	137.805939
219.571814	175.533295	135.383606
219.624243	180.053711	133.037567
219.676672	158.061981	128.250122
219.729101	175.971985	140.171051
219.781530	170.249939	136.661530
219.833958	181.179047	141.372681
219.886387	158.824921	139.598846
219.938816	161.418915	129.718781
219.991245	173.683167	148.010254
220.043674	184.841156	139.217377
220.096102	177.154541	136.795044
220.148531	167.713165	138.206482
220.200960	173.645020	141.010284
220.253389	159.721375	131.053925
220.305818	162.792206	134.220123
220.358246	187.149048	148.124695
220.410675	165.367126	135.879517
220.463104	173.339844	148.849487
220.515533	184.059143	149.707794
220.567962	165.386200	139.122009
220.620390	167.751312	134.944916
220.672819	192.260742	149.307251
220.725248	193.214417	146.522522
220.777677	173.530579	134.830475
220.830106	178.508759	141.716003
220.882534	166.835785	135.345459
220.934963	170.593262	139.255524
220.987392	162.887573	134.830475
221.039821	176.506042	133.495331
221.092250	177.249908	140.342712
221.144678	175.533295	133.285522
221.197107	178.108215	140.647888
221.249536	172.863007	135.784149
221.301965	182.628632	146.083832
221.354394	175.304413	139.865875
221.406822	164.260864	134.258270
221.459251	183.200836	146.102905
221.511680	175.590515	136.985779
221.564109	183.429718	142.078400
221.616538	166.683197	138.053894
221.668966	151.786804	122.356415
221.721395	169.506073	129.013062
221.773824	160.369873	131.587982
221.826253	169.887543	141.925812
221.878682	176.258087	142.536163
221.931110	178.794861	139.522552
221.983539	171.508789	135.841370
222.035968	179.920197	133.666992
222.088397	160.846710	132.408142
222.140826	163.249969	142.135620
222.193254	174.026489	141.925812
222.245683	177.211761	141.067505
222.298112	161.228180	134.220123
222.350541	164.012909	145.301819
222.402970	163.516998	134.925842
222.455398	184.822083	147.190094
222.507827	170.288086	136.032104
222.560256	183.639526	140.132904
222.612685	173.835754	140.209198
222.665114	164.394379	137.386322
222.717542	169.754028	152.244568
222.769971	162.525177	127.239227
222.822400	163.860321	132.446289
222.874829	171.527863	134.735107
222.927258	180.759430	144.138336
222.979686	163.593292	129.985809
223.032115	170.173645	135.841370
223.084544	172.729492	144.920349
223.136973	182.456970	145.893097
223.189402	182.380676	148.296356
223.241830	170.936584	143.833160
223.294259	169.830322	132.675171
223.346688	178.241730	134.792328
223.399117	182.533264	147.361755
223.451546	172.271729	147.323608
223.503974	179.615021	135.421753
223.556403	173.683167	121.269226
223.608832	165.519714	131.168365
223.661261	167.160034	134.372711
223.713690	168.533325	136.299133
223.766118	175.209045	128.402710
223.818547	180.358887	140.361786
223.870976	168.800354	144.424438
223.923405	177.364349	136.871338
223.975834	183.391571	145.149231
224.028262	170.936584	142.841339
224.080691	179.691315	138.397217
224.133120	174.922943	141.277313
224.185549	162.754059	132.808685
224.237978	168.380737	144.157410
224.290406	175.342560	137.271881
224.342835	167.236328	140.151978
224.395264	169.906616	132.522583
224.447693	167.140961	145.397186
224.500122	170.726776	142.726898
224.552550	162.506104	125.598907
224.604979	174.064636	134.391785
224.657408	174.236298	140.705109
224.709837	169.620514	133.991241
224.762266	174.541473	131.626129
224.814694	171.985626	131.855011
224.867123	183.391571	134.010315
224.919552	167.198181	132.732391
224.971981	167.274475	137.290955
225.024410	171.203613	135.211945
225.076838	177.555084	136.051178
225.129267	180.015564	135.955811
225.181696	179.042816	140.895844
225.234125	187.397003	132.198334
225.286554	182.323456	140.342712
225.338982	170.345306	137.462616
225.391411	168.018341	133.304596
225.443840	170.307159	133.018494
225.496269	167.407990	133.914948
225.548698	173.034668	140.476227
225.601126	165.729523	127.696991
225.653555	170.688629	138.950348
225.705984	182.247162	151.939392
225.758413	175.075531	149.784088
225.810842	164.070129	142.498016
225.863270	174.942017	134.582520
225.915699	161.972046	133.380890
225.968128	183.086395	136.814117
226.020557	181.674957	137.538910
226.072986	172.309875	144.901276
226.125414	170.459747	130.424500
226.177843	171.546936	139.255524
226.230272	176.105499	132.484436
226.282701	177.078247	138.530731
226.335130	170.059204	134.410858
226.387558	172.786713	152.397156
226.439987	166.301727	146.999359
226.492416	163.574219	144.176483
226.544845	172.157288	133.781433
226.597274	180.797577	145.454407
226.649702	187.397003	144.824982
226.702131	172.863007	139.465332
226.754560	158.405304	131.072998
226.806989	159.492493	140.266418
226.859418	172.080994	136.070251
226.911846	172.042847	137.310028
226.964275	178.012848	139.083862
227.016704	165.519714	133.762360
227.069133	174.732208	132.846832
227.121562	173.149109	143.680573
227.173990	176.410675	138.111115
227.226419	168.685913	137.157440
227.278848	164.279938	138.416290
227.331277	168.094635	135.536194
227.383706	172.348022	138.187408
227.436134	171.756744	133.666992
227.488563	170.116425	131.530762
227.540992	176.753998	142.116547
227.593421	175.895691	143.127441
227.645850	182.113647	133.895874
227.698278	184.268951	136.814117
227.750707	167.045593	130.825043
227.803136	177.268982	139.541626
227.855565	182.857513	129.299164
227.907994	176.372528	146.465302
227.960422	185.279846	137.767792
228.012851	165.004730	135.707855
228.065280	179.367065	145.492554
228.117709	200.023651	146.350861
228.170138	168.495178	138.988495
228.222566	177.783966	146.255493
228.274995	173.587799	132.675171
228.327424	171.222687	133.895874
228.379853	190.963745	140.419006
228.432282	183.868408	142.116547
228.484710	179.634094	139.884949
228.537139	175.552368	137.004852
228.589568	167.942047	139.293671
228.641997	165.519714	141.391754
228.694426	179.042816	132.923126
228.746854	176.620483	135.078430
228.799283	166.053772	123.176575
228.851712	178.203583	137.958527
228.904141	183.563232	147.323608
228.956570	163.154602	134.563446
229.008998	185.127258	139.408112
229.061427	176.239014	135.936737
229.113856	174.369812	137.310028
229.166285	177.459717	144.119263
229.218714	181.274414	147.781372
229.271142	184.001923	152.244568
229.323571	186.500549	147.838593
229.376000	173.702240	135.688782
229.428429	177.402496	150.508881
229.480858	183.181763	144.157410
229.533286	174.045563	144.100189
229.585715	164.585114	136.203766
229.638144	163.307190	134.677887
229.690573	176.143646	142.726898
229.743002	166.702271	136.413574
229.795430	180.377960	134.696960
229.847859	171.928406	124.988556
229.900288	164.718628	122.623444
229.952717	161.457062	131.835937
230.005146	165.920258	136.985779
230.057574	176.448822	138.931274
230.110003	165.023804	140.075684
230.162432	176.200867	141.963959
230.214861	167.064667	141.601562
230.267290	181.503296	133.132935
230.319718	165.710449	127.639771
230.372147	178.413391	139.389038
230.424576	177.917480	148.448944
230.477005	166.244507	134.220123
230.529434	180.244446	146.083832
230.581862	165.309906	136.032104
230.634291	189.418793	143.108368
230.686720	180.664062	136.718750
230.739149	168.361664	128.593445
230.791578	164.470673	132.808685
230.844006	173.568726	138.034821
230.896435	169.601440	139.961243
230.948864	183.143616	144.233704
231.001293	178.756714	140.571594
231.053722	169.830322	147.190094
231.106150	175.457001	147.037506
231.158579	166.435242	132.179260
231.211008	182.476044	128.879547
231.263437	154.228210	126.953125
231.315866	181.999207	141.296387
231.368294	170.917511	133.895874
231.420723	164.127350	134.315491
231.473152	175.437927	134.201050
231.525581	170.841217	132.827759
231.578010	190.067291	142.078400
231.630438	183.315277	143.432617
231.682867	170.745850	132.846832
231.735296	172.977448	136.032104
231.787725	184.822083	145.568848
231.840154	181.846619	140.190125
231.892582	162.906647	136.146545
231.945011	187.053680	151.977539
231.997440	173.587799	147.895813
232.049869	167.961121	129.165649
232.102298	167.846680	130.558014
232.154726	163.307190	129.852295
232.207155	172.386169	131.607056
232.259584	172.672272	139.942169
232.312013	178.623199	141.410828
232.364442	202.903748	142.974854
232.416870	178.718567	133.552551
232.469299	169.277191	135.383606
232.521728	178.070068	134.582520
232.574157	193.386078	130.882263
232.626586	176.429749	145.702362
232.679014	169.315338	133.991241
232.731443	184.745789	142.269135
232.783872	170.307159	138.988495
232.836301	166.530609	124.244690
232.888730	170.135498	130.729675
232.941158	154.533386	120.735168
232.993587	179.061890	136.795044
233.046016	171.012878	125.579834
233.098445	156.879425	131.664276
233.150874	176.353455	134.239197
233.203302	169.067383	128.841400
233.255731	174.331665	143.146515
233.308160	167.560577	143.890381
233.360589	175.991058	127.506256
233.413018	179.004669	150.260925
233.465446	173.225403	128.688812
233.517875	192.813873	151.081085
233.570304	180.015564	138.778687
233.622733	174.713135	144.538879
233.675162	180.530548	146.350861
233.727590	174.579620	141.181946
233.780019	171.794891	133.247375
233.832448	169.601440	151.519775
233.884877	178.947449	148.696899
233.937306	178.527832	135.917664
233.989734	187.339783	143.737793
234.042163	179.195404	146.446228
234.094592	179.347992	144.977570
234.147021	178.623199	132.503510
234.199450	166.282654	133.132935
234.251878	183.639526	135.345459
234.304307	171.089172	145.130157
234.356736	172.824860	132.904053
234.409165	165.462494	131.626129
234.461594	172.061920	130.062103
234.514022	165.119171	128.536224
234.566451	177.116394	152.511597
234.618880	184.135437	142.650604
234.671309	173.664093	137.042999
234.723738	187.892914	139.846802
234.776166	178.756714	151.233673
234.828595	172.901154	142.307281
234.881024	175.933838	140.457153
234.933453	171.718597	137.119293
234.985882	168.972015	143.642426
235.038310	162.448883	131.797791
235.090739	166.358948	137.214661
235.143168	177.898407	135.269165
235.195597	177.631378	135.669708
235.248026	192.718506	140.609741
235.300454	197.944641	148.925781
235.352883	177.707672	139.236450
235.405312	173.339844	149.269104
235.457741	170.135498	127.868652
235.510170	196.456909	137.252808
235.562598	167.446136	142.574310
235.615027	172.176361	128.364563
235.667456	167.770386	138.473511
235.719885	170.917511	140.419006
235.772314	167.427063	141.506195
235.824742	178.852081	141.029358
235.877171	169.124603	138.263702
235.929600	174.045563	144.672394
235.982029	164.031982	136.318207
236.034458	169.258118	144.348145
236.086886	165.100098	132.045746
236.139315	176.811218	130.519867
236.191744	178.318024	135.936737
236.244173	183.010101	137.500763
236.296602	186.004639	138.874054
236.349030	182.590485	130.691528
236.401459	153.350830	131.378174
236.453888	175.075531	138.034821
236.506317	176.658630	135.250092
236.558746	172.386169	140.285492
236.611174	182.056427	156.497955
236.663603	176.353455	133.800507
236.716032	174.980164	142.269135
236.768461	169.124603	134.696960
236.820890	184.059143	148.677826
236.873318	175.323486	151.748657
236.925747	168.609619	131.721497
236.978176	179.271698	138.950348
237.030605	163.879395	132.083893
237.083034	186.958313	139.312744
237.135462	181.388855	135.135651
237.187891	172.843933	136.451721
237.240320	172.672272	134.315491
237.292749	186.004639	139.160156
237.345178	171.680450	135.078430
237.397606	160.083771	132.427216
237.450035	159.740448	134.048462
237.502464	173.187256	135.517120
237.554893	162.296295	141.143799
237.607322	168.323517	139.713287
237.659750	178.012848	142.116547
237.712179	168.418884	134.334564
237.764608	191.001892	150.833130
237.817037	183.715820	144.634247
237.869466	164.031982	139.369965
237.921894	176.753998	141.315460
237.974323	166.568756	133.724213
238.026752	172.023773	142.135620
238.079181	169.239044	130.786896
238.131610	178.451538	136.680603
238.184038	181.808472	133.476257
238.236467	176.467896	143.508911
238.288896	173.835754	137.996674
238.341325	175.476074	142.040253
238.393754	173.435211	143.928528
238.446182	175.209045	129.947662
238.498611	167.388916	135.250092
238.551040	176.639557	142.784119
238.603469	174.522400	138.969421
238.655898	170.135498	143.890381
238.708326	176.525116	138.378143
238.760755	174.884796	144.290924
238.813184	176.887512	139.827728
238.865613	185.279846	144.519806
238.918042	161.800385	134.906769
238.970470	165.481567	130.043030
239.022899	170.059204	134.696960
239.075328	174.922943	138.492584
239.127757	186.595917	136.985779
239.180186	165.100098	143.527985
239.232614	158.672333	131.340027
239.285043	168.914795	138.320923
239.337472	183.525085	140.953064
239.389901	169.448853	141.525269
239.442330	171.661377	142.250061
239.494758	173.473358	142.860413
239.547187	180.435181	137.901306
239.599616	170.726776	132.884979
239.652045	174.465179	144.462585
239.704474	182.952881	151.348114
239.756902	166.778564	141.468048
239.809331	173.683167	141.105652
239.861760	176.830292	133.991241
239.914189	185.317993	142.574310
239.966618	162.925720	135.211945
240.019046	168.285370	139.312744
240.071475	176.734924	135.498047
240.123904	177.497864	145.301819
240.176333	168.190002	125.637054
240.228762	184.307098	147.933960
240.281190	165.042877	148.868561
240.333619	178.852081	140.933990
240.386048	174.674988	138.187408
240.438477	182.647705	140.438080
240.490906	177.650452	138.111115
240.543334	158.672333	137.500763
240.595763	168.857574	131.664276
240.648192	172.767639	152.740479
240.700621	165.920258	153.503418
240.753050	179.538727	128.383636
240.805478	175.018311	144.977570
240.857907	169.467926	133.743286
240.910336	174.541473	140.800476
240.962765	177.574158	134.601593
241.015194	183.677673	146.713257
241.067622	174.961090	134.983063
241.120051	186.862946	149.421692
241.172480	169.830322	137.901306
241.224909	175.037384	136.432648
241.277338	161.724091	133.819580
241.329766	179.805756	146.656036
241.382195	167.579651	132.637024
241.434624	169.258118	134.410858
241.487053	187.187195	127.315521
241.539482	173.645020	144.557953
241.591910	178.432465	137.634277
241.644339	176.773071	142.230988
241.696768	176.124573	144.214630
241.749197	178.375244	137.691498
241.801626	178.718567	133.876801
241.854054	164.947510	132.541656
241.906483	175.991058	134.487152
241.958912	168.666840	153.121948
242.011341	166.873932	131.492615
242.063770	174.083710	138.587952
242.116198	176.086426	141.849518
242.168627	165.233612	144.252777
242.221056	173.149109	142.154694
242.273485	169.734955	134.792328
242.325914	176.258087	140.895844
242.378342	176.506042	143.356323
242.430771	173.892975	138.702393
242.483200	174.922943	141.525269
242.535629	178.794861	144.329071
242.588058	168.132782	125.789642
242.640486	176.639557	139.865875
242.692915	167.255402	139.694214
242.745344	183.696747	141.544342
242.797773	182.781219	135.688782
242.850202	175.914764	139.942169
242.902630	179.843903	139.293671
242.955059	202.083588	140.876770
243.007488	167.732239	133.628845
243.059917	167.293549	137.939453
243.112346	163.402557	131.492615
243.164774	170.173645	130.405426
243.217203	188.465118	140.743256
243.269632	171.794891	137.844086
243.322061	172.080994	138.225555
243.374490	181.121826	140.247345
243.426918	163.116455	127.182007
243.479347	165.729523	134.143829
243.531776	168.590546	133.094788
243.584205	161.170959	140.285492
243.636634	171.928406	138.034821
243.689062	178.871155	130.386353
243.741491	177.021027	143.051147
243.793920	182.723999	141.181946
243.846349	175.876617	142.173767
243.898778	169.887543	136.337280
243.951206	165.729523	122.985840
244.003635	161.590576	135.726929
244.056064	158.386230	131.187439
244.108493	163.326263	132.617950
244.160922	168.952942	138.721466
244.213350	161.914825	116.901398
244.265779	170.078278	149.421692
244.318208	175.914764	146.007538
244.370637	180.625916	136.394501
244.423066	175.533295	131.092072
244.475494	164.527893	145.130157
244.527923	165.996552	130.119324
244.580352	167.179108	136.547089
244.632781	171.833038	136.890411
244.685210	169.277191	146.865845
244.737638	175.304413	138.034821
244.790067	180.549622	129.642487
244.842496	168.056488	131.855011
244.894925	169.906616	141.296387
244.947354	179.367065	145.416260
244.999782	170.879364	145.740509
245.052211	165.824890	137.481689
245.104640	176.677704	151.386261
245.157069	167.598724	134.353638
245.209498	170.230865	134.143829
245.261926	178.050995	139.122009
245.314355	179.748535	142.593384
245.366784	177.364349	131.225586
245.419213	174.198151	151.100159
245.471642	176.391602	142.898560
245.524070	174.369812	137.596130
245.576499	176.334381	133.171082
245.628928	193.939209	143.280029
245.681357	173.721313	136.814117
245.733786	171.604156	136.737823
245.786214	185.146332	146.217346
245.838643	168.247223	142.726898
245.891072	163.593292	138.397217
245.943501	177.516937	130.138397
245.995930	177.040100	144.996643
246.048358	173.130035	130.405426
246.100787	167.827606	139.656067
246.153216	171.203613	135.364532
246.205645	167.541504	141.010284
246.258074	176.563263	150.184631
246.310502	164.585114	136.737823
246.362931	184.211731	146.827698
246.415360	171.833038	138.950348
246.467789	174.751282	142.803192
246.520218	155.105591	134.677887
246.572646	173.606873	140.743256
246.625075	179.290771	145.053864
246.677504	169.525146	140.399933
246.729933	178.909302	133.132935
246.782362	183.715820	143.547058
246.834790	168.018341	142.917633
246.887219	172.843933	133.800507
246.939648	167.789459	138.034821
246.992077	172.328949	138.969421
247.044506	160.655975	135.326385
247.096934	176.486969	142.688751
247.149363	187.129974	138.282776
247.201792	173.187256	138.969421
247.254221	173.130035	133.094788
247.306650	172.576904	137.615204
247.359078	170.536041	137.367249
247.411507	167.770386	140.151978
247.463936	183.410645	134.849548
247.516365	195.922852	136.241913
247.568794	180.110931	147.933960
247.621222	168.132782	138.416290
247.673651	176.906586	139.160156
247.726080	188.541412	133.399963
247.778509	173.110962	140.743256
247.830938	171.318054	130.634308
247.883366	173.530579	136.432648
247.935795	173.759460	140.132904
247.988224	182.437897	147.953033
248.040653	170.669556	136.089325
248.093082	175.132751	140.686035
248.145510	168.895721	135.135651
248.197939	183.353424	137.958527
248.250368	168.838501	132.408142
248.302797	175.437927	139.102936
248.355226	173.339844	146.255493
248.407654	176.296234	141.086578
248.460083	171.394348	136.375427
248.512512	175.857544	135.726929
248.564941	170.211792	138.893127
248.617370	170.135498	127.887726
248.669798	188.102722	145.549774
248.722227	175.342560	143.623352
248.774656	164.470673	135.765076
248.827085	189.704895	145.263672
248.879514	160.350800	129.280090
248.931942	165.977478	137.176514
248.984371	173.053741	145.721436
249.036800	189.838409	139.884949
249.089229	166.702271	131.988525
249.141658	188.655853	153.617859
249.194086	167.922974	137.901306
249.246515	180.358887	135.478973
249.298944	155.105591	128.479004
249.351373	176.582336	133.171082
249.403802	177.001953	144.138336
249.456230	176.105499	144.729614
249.508659	182.609558	145.492554
249.561088	167.922974	136.013031
249.613517	171.508789	132.579803
249.665946	172.119141	134.048462
249.718374	179.138184	140.800476
249.770803	176.677704	137.443542
249.823232	168.476105	131.893158
249.875661	170.288086	144.901276
249.928090	165.271759	145.740509
249.980518	177.345276	133.972168
250.032947	173.511505	134.849548
250.085376	178.108215	143.299103
250.137805	173.854828	136.737823
250.190234	167.942047	137.691498
250.242662	182.285309	143.661499
250.295091	170.764923	142.402649
250.347520	164.375305	121.707916
250.399949	182.666779	143.680573
250.452378	165.863037	121.116638
250.504806	166.816711	133.724213
250.557235	162.506104	128.726959
250.609664	174.465179	145.854950
250.662093	174.255371	144.309998
250.714522	174.961090	138.301849
250.766950	171.985626	134.010315
250.819379	167.503357	138.225555
250.871808	177.993774	147.857666
250.924237	182.571411	132.980347
250.976666	174.217224	150.051117
251.029094	177.803040	140.342712
251.081523	176.029205	140.590668
251.133952	177.307129	136.661530
251.186381	174.045563	142.402649
251.238810	162.734985	125.827789
251.291238	177.745819	136.318207
251.343667	172.080994	140.724182
251.396096	166.664124	143.795013
251.448525	167.388916	129.127502
251.500954	179.214478	140.399933
251.553382	174.922943	143.966675
251.605811	166.778564	143.280029
251.658240	164.737701	134.029388
251.710669	174.961090	139.980316
251.763098	173.549652	142.078400
251.815526	173.301697	128.402710
251.867955	164.585114	134.162903
251.920384	183.486938	144.252777
251.972813	176.429749	131.702423
252.025242	176.448822	140.533447
252.077670	178.394318	157.165527
252.130099	168.552399	137.157440
252.182528	171.260834	144.596100
252.234957	171.051025	141.258240
252.287386	167.045593	136.985779
252.339814	161.266327	134.754181
252.392243	168.437958	145.301819
252.444672	178.661346	150.012970
252.497101	165.252686	138.378143
252.549530	170.211792	143.318176
252.601958	169.277191	139.369965
252.654387	184.020996	141.716003
252.706816	170.440674	140.056610
252.759245	173.130035	131.378174
252.811674	170.917511	137.920380
252.864102	169.200897	141.754150
252.916531	184.192657	135.822296
252.968960	172.061920	136.299133
253.021389	174.827576	133.533478
253.073818	170.898437	124.912262
253.126246	182.056427	140.552521
253.178675	174.388885	134.296417
253.231104	188.655853	134.944916
253.283533	164.051056	130.710602
253.335962	178.585052	128.707886
253.388390	173.377991	148.200989
253.440819	170.726776	137.252808
253.493248	176.105499	141.220093
253.545677	178.680420	132.369995
253.598106	167.655945	128.326416
253.650534	172.538757	139.446259
253.702963	171.623230	131.969452
253.755392	194.492340	138.092041
253.807821	162.391663	126.914978
253.860250	173.225403	134.315491
253.912678	171.222687	148.963928
253.965107	182.018280	141.696930
254.017536	172.748566	142.383575
254.069965	174.293518	143.947601
254.122394	168.247223	134.410858
254.174822	169.982910	126.075745
254.227251	167.598724	146.007538
254.279680	171.680450	141.582489
254.332109	167.446136	142.841339
254.384538	158.100128	137.748718
254.436966	165.767670	137.519836
254.489395	154.228210	132.255554
254.541824	172.195435	143.814087
254.594253	180.606842	136.241913
254.646682	176.582336	137.443542
254.699110	163.650513	140.533447
254.751539	172.176361	134.830475
254.803968	163.860321	130.443573
254.856397	188.388824	139.579773
254.908826	174.713135	140.686035
254.961254	178.623199	137.252808
255.013683	165.748596	143.871307
255.066112	168.056488	129.852295
255.118541	172.996521	133.209229
255.170970	166.606903	131.797791
255.223398	186.634064	147.037506
255.275827	183.715820	137.634277
255.328256	166.816711	136.604309
255.380685	177.631378	146.274567
255.433114	199.851990	133.724213
255.485542	187.587738	145.511627
255.537971	163.974762	132.465363
255.590400	171.375275	131.359100
255.642829	174.121857	135.517120
255.695258	176.353455	135.860443
255.747686	176.830292	144.557953
255.800115	171.470642	138.530731
255.852544	172.595978	141.029358
255.904973	177.249908	130.672455
255.957402	182.895660	144.233704
256.009830	172.119141	135.002136
256.062259	181.064606	131.740570
256.114688	170.726776	132.675171
256.167117	171.794891	126.533508
256.219546	184.059143	149.459839
256.271974	184.364319	145.473480
256.324403	168.437958	136.051178
256.376832	175.895691	141.582489
256.429261	159.721375	130.348206
256.481690	171.718597	154.170990
256.534118	170.402527	139.293671
256.586547	166.263580	129.013062
256.638976	159.893036	138.607025
256.691405	171.279907	136.718750
256.743834	177.402496	142.021179
256.796262	176.696777	137.405396
256.848691	173.072815	136.070251
256.901120	180.473328	140.399933
256.953549	198.802948	144.634247
257.005978	180.778503	137.252808
257.058406	175.914764	137.310028
257.110835	175.724030	128.574371
257.163264	174.121857	150.089264
257.215693	166.740417	143.375397
257.268122	174.732208	131.282806
257.320550	179.767609	140.361786
257.372979	166.091919	134.086609
257.425408	181.064606	135.440826
257.477837	186.405182	138.645172
257.530266	159.378052	137.424469
257.582694	179.920197	140.800476
257.635123	169.525146	130.786896
257.687552	168.190002	130.214691
257.739981	166.587830	132.274628
257.792410	172.863007	145.473480
257.844838	171.604156	138.168335
257.897267	176.830292	131.473541
257.949696	180.587769	138.797760
258.002125	170.173645	139.179230
258.054554	176.620483	142.726898
258.106982	176.601410	140.895844
258.159411	178.146362	135.574341
258.211840	181.427002	138.416290
258.264269	172.290802	136.642456
258.316698	154.628754	129.013062
258.369126	167.102814	133.590698
258.421555	172.195435	137.634277
258.473984	164.756775	143.032074
258.526413	172.538757	133.285522
258.578842	177.555084	140.628815
258.631270	172.805786	139.713287
258.683699	186.939240	141.792297
258.736128	164.375305	136.756897
258.788557	165.386200	140.972137
258.840986	176.677704	134.239197
258.893414	174.865723	155.029297
258.945843	178.318024	131.320953
258.998272	174.350739	146.007538
259.050701	169.296265	143.260956
259.103130	167.999268	149.536133
259.155558	172.843933	144.119263
259.207987	168.628693	141.410828
259.260416	169.830322	141.735077
259.312845	184.593201	149.478912
259.365274	175.151825	134.086609
259.417702	176.601410	128.364563
259.470131	165.328979	141.391754
259.522560	178.337097	145.969391
259.574989	169.334412	136.623383
259.627418	179.233551	133.781433
259.679846	172.863007	141.868591
259.732275	169.677734	138.931274
259.784704	176.563263	137.672424
259.837133	164.642334	134.830475
259.889562	178.718567	131.149292
259.941990	169.334412	128.765106
259.994419	170.345306	138.072968
260.046848	165.691376	129.661560
260.099277	163.269043	145.931244
260.151706	170.478821	138.187408
260.204134	172.328949	130.386353
260.256563	176.239014	145.359039
260.308992	170.803070	144.691467
260.361421	168.571472	150.527954
260.413850	181.674957	144.500732
260.466278	170.726776	138.549805
260.518707	171.871185	143.108368
260.571136	176.162720	147.457123
260.623565	170.631409	130.577087
260.675994	169.353485	133.094788
260.728422	172.977448	134.429932
260.780851	186.786652	142.478943
260.833280	165.672302	130.004883
260.885709	175.533295	128.421783
260.938138	173.435211	133.628845
260.990566	183.525085	137.233734
261.042995	180.797577	138.263702
261.095424	175.399780	132.999420
261.147853	168.552399	140.800476
261.200282	174.827576	149.021149
261.252710	169.429779	131.435394
261.305139	165.576935	143.890381
261.357568	175.228119	138.797760
261.409997	177.612305	134.582520
261.462426	174.121857	145.835876
261.514854	165.996552	133.571625
261.567283	161.476135	131.340027
261.619712	174.484253	140.991211
261.672141	182.609558	149.555206
261.724570	174.102783	143.470764
261.776998	163.021088	133.514404
261.829427	176.658630	140.743256
261.881856	170.860291	141.601562
261.934285	175.361633	135.345459
261.986714	172.767639	147.933960
262.039142	180.835724	133.094788
262.091571	157.318115	131.587982
262.144000	174.160004	133.953094
262.196429	170.497894	141.105652
262.248858	165.748596	137.252808
262.301286	175.628662	135.478973
262.353715	183.448792	137.004852
262.406144	179.176331	145.797729
262.458573	179.958344	138.378143
262.511002	181.541443	140.914917
262.563430	173.988342	140.762329
262.615859	159.778595	128.173828
262.668288	175.933838	134.773254
262.720717	172.195435	133.972168
262.773146	182.151794	136.814117
262.825574	182.628632	143.585205
262.878003	174.942017	138.778687
262.930432	171.394348	129.661560
262.982861	177.421570	134.010315
263.035290	175.342560	139.961243
263.087718	184.993744	145.282745
263.140147	174.121857	130.805969
263.192576	173.645020	143.566132
263.245005	168.132782	141.372681
263.297434	168.170929	135.326385
263.349862	172.290802	125.350952
263.402291	176.811218	147.209167
263.454720	190.238953	140.647888
263.507149	179.405212	144.748688
263.559578	176.906586	138.683319
263.612006	173.377991	133.075714
263.664435	178.604126	141.696930
263.716864	182.800293	152.416229
263.769293	187.644958	146.503448
263.821722	168.361664	134.315491
263.874150	168.132782	139.808655
263.926579	177.078247	141.201019
263.979008	168.228149	134.086609
264.031437	166.664124	132.045746
264.083866	171.566010	136.947632
264.136294	179.271698	139.656067
264.188723	161.209106	135.269165
264.241152	178.928375	150.566101
264.293581	172.100067	132.675171
264.346010	176.105499	140.438080
264.398438	172.100067	140.914917
264.450867	169.830322	130.615234
264.503296	166.492462	139.598846
264.555725	169.639587	136.661530
264.608154	180.416107	140.857697
264.660582	159.988403	139.408112
264.713011	175.533295	136.795044
264.765440	173.950195	146.865845
264.817869	176.582336	156.898499
264.870298	175.151825	137.348175
264.922726	180.473328	148.696899
264.975155	166.816711	124.111176
265.027584	180.568695	144.367218
265.080013	168.857574	137.786865
265.132442	165.672302	131.740570
265.184870	184.555054	147.571564
265.237299	178.985596	152.626038
265.289728	163.822174	134.677887
265.342157	168.285370	127.220154
265.394586	173.015594	137.481689
265.447014	174.789429	138.721466
265.499443	181.198120	140.495300
265.551872	174.446106	131.053925
265.604301	158.748627	135.421753
265.656730	170.364380	143.032074
265.709158	172.824860	145.206451
265.761587	185.852051	153.331757
265.814016	173.320770	154.933929
265.866445	176.200867	130.119324
265.918874	165.271759	139.770508
265.971302	174.160004	134.429932
266.023731	172.100067	141.544342
266.076160	172.214508	132.770538
266.128589	173.377991	135.002136
266.181018	153.942108	140.151978
266.233446	172.443390	143.032074
266.285875	157.089233	129.776001
266.338304	174.808502	142.211914
266.390733	166.873932	133.857727
266.443162	180.339813	139.713287
266.495590	185.432434	147.151947
266.548019	158.405304	133.380890
266.600448	176.849365	138.263702
266.652877	173.130035	137.443542
266.705306	175.857544	132.579803
266.757734	186.862946	142.498016
266.810163	166.511536	135.688782
266.862592	162.696838	138.950348
266.915021	190.353394	129.814148
266.967450	157.375336	139.293671
267.019878	167.503357	131.072998
267.072307	167.446136	142.192841
267.124736	173.740387	142.765045
267.177165	176.753998	140.247345
267.229594	171.871185	142.879486
267.282022	175.647736	134.811401
267.334451	169.162750	140.457153
267.386880	166.549683	134.811401
267.439309	181.846619	131.034851
267.491738	167.884827	132.141113
267.544166	178.623199	138.854980
267.596595	177.612305	149.269104
267.649024	177.097321	132.007599
267.701453	179.882050	137.672424
267.753882	171.833038	138.111115
267.806310	162.143707	129.871368
267.858739	165.596008	138.416290
267.911168	178.680420	142.498016
267.963597	172.080994	144.996643
268.016026	164.623260	128.879547
268.068454	184.669495	145.816803
268.120883	172.843933	141.849518
268.173312	173.664093	134.410858
268.225741	156.116486	129.604340
268.278170	183.029175	132.255554
268.330598	171.928406	132.217407
268.383027	156.879425	134.162903
268.435456	193.309784	149.593353
268.487885	173.797607	143.585205
268.540314	167.350769	130.214691
268.592742	170.574188	141.239166
268.645171	169.792175	142.040253
268.697600	165.653229	142.917633
268.750029	170.288086	135.097504
268.802458	172.729492	136.966705
268.854886	168.132782	138.187408
268.907315	170.135498	134.906769
268.959744	168.056488	136.852264
269.012173	180.206299	139.579773
269.064602	164.451599	129.547119
269.117030	175.933838	139.541626
269.169459	173.740387	132.102966
269.221888	169.467926	133.934021
269.274317	161.933899	131.168365
269.326746	157.756805	134.391785
269.379174	174.312592	140.323639
269.431603	177.459717	135.765076
269.484032	172.157288	140.151978
269.536461	161.628723	130.290985
269.588890	171.508789	135.917664
269.641318	169.830322	139.598846
269.693747	161.342621	137.825012
269.746176	174.465179	136.966705
269.798605	170.459747	137.348175
269.851034	174.083710	144.424438
269.903462	170.745850	137.004852
269.955891	187.034607	147.361755
270.008320	174.655914	132.503510
270.060749	172.519684	137.042999
270.113178	163.516998	131.206512
270.165606	169.525146	134.601593
270.218035	186.691284	153.026581
270.270464	188.751221	141.868591
270.322893	166.301727	139.827728
270.375322	170.860291	141.811371
270.427750	179.767609	140.304565
270.480179	176.448822	143.699646
270.532608	174.369812	127.735138
270.585037	167.980194	126.361847
270.637466	172.157288	149.230957
270.689894	175.819397	134.544373
270.742323	177.574158	141.983032
270.794752	165.309906	143.642426
270.847181	166.320801	144.824982
270.899610	172.824860	142.974854
270.952038	175.476074	139.045715
271.004467	166.950226	130.653381
271.056896	174.427032	131.034851
271.109325	174.827576	143.222809
271.161754	176.448822	141.525269
271.214182	168.437958	132.083893
271.266611	174.160004	145.130157
271.319040	159.969330	127.143860
271.371469	179.767609	142.974854
271.423898	172.939301	131.912231
271.476326	175.971985	136.222839
271.528755	164.070129	133.724213
271.581184	175.228119	138.053894
271.633613	173.053741	136.795044
271.686042	184.402466	148.677826
271.738470	177.383423	137.996674
271.790899	163.936615	132.541656
271.843328	171.031952	133.094788
271.895757	164.756775	131.912231
271.948186	170.059204	141.563416
272.000614	171.298981	138.378143
272.053043	168.685913	125.846863
272.105472	173.740387	134.696960
272.157901	171.012878	129.642487
272.210330	164.890289	134.487152
272.262758	163.955688	125.579834
272.315187	179.748535	142.135620
272.367616	181.045532	144.691467
272.420045	175.647736	133.018494
272.472474	171.546936	137.577057
272.524902	176.677704	125.961304
272.577331	176.658630	132.732391
272.629760	175.476074	142.898560
272.682189	187.034607	133.113861
272.734618	169.925690	142.211914
272.787046	185.298920	142.021179
272.839475	175.762177	141.735077
272.891904	170.631409	135.440826
272.944333	174.102783	139.236450
272.996762	171.165466	140.914917
273.049190	169.963837	125.770569
273.101619	181.198120	130.043030
273.154048	161.018372	135.288239
273.206477	181.980133	144.157410
273.258906	168.323517	132.064819
273.311334	171.108246	137.634277
273.363763	178.604126	136.337280
273.416192	175.495148	145.378113
273.468621	168.342590	140.781403
273.521050	170.555115	135.059357
273.573478	168.647766	146.446228
273.625907	174.713135	129.451752
273.678336	168.781281	140.857697
273.730765	184.268951	137.424469
273.783194	165.996552	132.579803
273.835622	174.369812	138.511658
273.888051	179.710388	135.536194
273.940480	178.470612	148.506165
273.992909	177.974701	133.934021
274.045338	178.527832	134.239197
274.097766	178.565979	140.743256
274.150195	185.394287	146.980286
274.202624	169.296265	136.375427
274.255053	168.018341	145.092010
274.307482	195.293427	146.064758
274.359910	170.383453	141.639709
274.412339	167.827606	131.320953
274.464768	178.947449	138.187408
274.517197	168.437958	140.304565
274.569626	178.794861	134.067535
274.622054	171.051025	139.694214
274.674483	174.999237	139.179230
274.726912	178.871155	139.713287
274.779341	185.871124	144.958496
274.831770	173.721313	134.792328
274.884198	165.348053	125.083923
274.936627	183.410645	135.765076
274.989056	183.658600	138.969421
275.041485	178.699493	137.729645
275.093914	161.266327	127.601624
275.146342	174.160004	138.320923
275.198771	174.217224	136.756897
275.251200	164.718628	136.890411
275.303629	175.876617	142.841339
275.356058	168.399811	135.173798
275.408486	172.710419	136.013031
275.460915	178.451538	139.827728
275.513344	180.644989	139.961243
275.565773	175.151825	133.056641
275.618202	170.059204	137.310028
275.670630	173.206329	140.972137
275.723059	168.132782	145.645142
275.775488	181.446075	133.171082
275.827917	176.544189	139.732361
275.880346	164.546967	130.233765
275.932774	177.135468	148.506165
275.985203	163.955688	130.958557
276.037632	173.263550	139.713287
276.090061	180.358887	135.898590
276.142490	178.279877	142.440796
276.194918	177.288055	143.680573
276.247347	174.179077	143.661499
276.299776	168.552399	151.386261
276.352205	160.465240	125.904083
276.404634	180.072784	135.803223
276.457062	177.536011	151.004791
276.509491	169.048309	143.432617
276.561920	167.694092	129.241943
276.614349	172.653198	131.797791
276.666778	160.560608	128.173828
276.719206	177.688599	138.587952
276.771635	167.732239	133.399963
276.824064	173.988342	138.206482
276.876493	164.356232	141.048431
276.928922	168.457031	135.040283
276.981350	173.683167	138.626099
277.033779	168.724060	134.887695
277.086208	183.238983	133.914948
277.138637	175.552368	142.230988
277.191066	175.685883	145.740509
277.243494	179.672241	143.413544
277.295923	160.560608	133.228302
277.348352	174.999237	133.571625
277.400781	173.130035	135.612488
277.453210	168.972015	139.751434
277.505638	161.514282	135.040283
277.558067	187.473297	141.487122
277.610496	175.228119	134.067535
277.662925	182.666779	153.751373
277.715354	188.179016	144.901276
277.767782	174.350739	126.705170
277.820211	165.100098	141.582489
277.872640	169.792175	141.487122
277.925069	179.328918	151.939392
277.977498	168.571472	127.334595
278.029926	174.140930	131.587982
278.082355	185.947418	135.726929
278.134784	154.190063	142.059326
278.187213	172.405243	133.686066
278.239642	186.481476	144.691467
278.292070	173.454285	138.969421
278.344499	166.893005	129.165649
278.396928	174.312592	138.378143
278.449357	175.018311	131.587982
278.501786	182.552338	138.854980
278.554214	170.536041	126.247406
278.606643	177.803040	139.503479
278.659072	170.040131	132.541656
278.711501	177.822113	131.702423
278.763930	166.702271	136.680603
278.816358	165.042877	145.874023
278.868787	173.969269	140.056610
278.921216	172.576904	134.181976
278.973645	175.247192	137.348175
279.026074	159.683228	130.977631
279.078502	180.587769	137.519836
279.130931	174.427032	132.560730
279.183360	165.596008	128.116608
279.235789	179.996490	140.762329
279.288218	169.734955	142.383575
279.340646	184.688568	141.258240
279.393075	176.658630	141.277313
279.445504	174.732208	143.585205
279.497933	168.685913	134.983063
279.550362	167.198181	132.789612
279.602790	169.181824	126.705170
279.655219	183.029175	143.642426
279.707648	182.247162	129.928589
279.760077	177.516937	129.280090
279.812506	168.304443	150.909424
279.864934	172.119141	140.495300
279.917363	169.143677	154.380798
279.969792	186.042786	144.233704
280.022221	176.353455	134.277344
280.074650	181.121826	130.443573
280.127078	162.448883	136.756897
280.179507	175.285339	137.348175
280.231936	185.871124	134.963989
280.284365	184.822083	143.985748
280.336794	170.459747	145.092010
280.389222	179.290771	142.498016
280.441651	183.467865	136.489868
280.494080	177.059174	133.438110
280.546509	170.822144	140.933990
280.598938	174.732208	130.939484
280.651366	179.882050	140.361786
280.703795	172.786713	144.519806
280.756224	163.822174	132.732391
280.808653	170.288086	149.345398
280.861082	185.089111	148.029327
280.913510	174.503326	141.639709
280.965939	186.157227	132.217407
281.018368	163.726807	129.623413
281.070797	177.898407	138.626099
281.123226	173.683167	134.105682
281.175654	161.113739	135.822296
281.228083	181.121826	135.669708
281.280512	168.266296	130.653381
281.332941	169.639587	130.786896
281.385370	165.195465	141.544342
281.437798	174.636841	142.612457
281.490227	167.446136	131.607056
281.542656	174.999237	134.334564
281.595085	167.846680	134.849548
281.647514	178.298950	138.721466
281.699942	170.822144	131.206512
281.752371	182.285309	146.942139
281.804800	171.623230	147.724152
281.857229	162.048340	145.320892
281.909658	165.290833	120.429993
281.962086	171.966553	137.863159
282.014515	166.549683	132.751465
282.066944	174.369812	123.023987
282.119373	183.334351	143.947601
282.171802	170.516968	144.062042
282.224230	182.895660	144.138336
282.276659	176.715851	151.824951
282.329088	159.130096	132.904053
282.381517	165.538788	138.492584
282.433946	193.099976	141.105652
282.486374	196.800232	148.010254
282.538803	172.843933	139.751434
282.591232	176.944733	140.647888
282.643661	182.266235	144.634247
282.696090	179.271698	135.326385
282.748518	178.680420	131.969452
282.800947	183.410645	141.391754
282.853376	176.467896	135.383606
282.905805	166.645050	138.149261
282.958234	171.623230	129.966736
283.010662	160.102844	130.100250
283.063091	173.873901	143.280029
283.115520	175.647736	139.141083
283.167949	166.740417	137.691498
283.220378	182.552338	147.171021
283.272806	174.140930	134.582520
283.325235	162.239075	140.476227
283.377664	176.277161	150.642395
283.430093	185.966492	133.342743
283.482522	170.001984	133.686066
283.534950	174.789429	132.465363
283.587379	181.980133	135.288239
283.639808	172.119141	141.162872
283.692237	171.375275	133.533478
283.744666	173.168182	129.070282
283.797094	174.274445	131.282806
283.849523	173.244476	148.487091
283.901952	179.786682	139.541626
283.954381	175.952911	138.225555
284.006810	157.852173	140.800476
284.059238	170.173645	136.337280
284.111667	175.437927	143.413544
284.164096	178.451538	146.064758
284.216525	178.852081	139.617920
284.268954	174.083710	134.010315
284.321382	175.762177	147.876740
284.373811	169.372559	146.217346
284.426240	170.116425	142.040253
284.478669	171.298981	129.795074
284.531098	180.282593	138.626099
284.583526	171.604156	141.544342
284.635955	174.484253	143.795013
284.688384	165.081024	138.912201
284.740813	166.053772	141.315460
284.793242	166.816711	137.557983
284.845670	180.072784	137.691498
284.898099	172.595978	140.876770
284.950528	178.279877	142.097473
285.002957	165.538788	138.797760
285.055386	163.726807	134.258270
285.107814	177.345276	139.503479
285.160243	175.037384	138.111115
285.212672	181.446075	141.162872
285.265101	176.868439	141.601562
285.317530	172.309875	130.176544
285.369958	164.279938	146.121979
285.422387	160.331726	126.209259
285.474816	170.726776	135.211945
285.527245	163.249969	140.342712
285.579674	166.339874	128.879547
285.632102	165.576935	134.468079
285.684531	164.794922	141.868591
285.736960	165.157318	141.563416
285.789389	184.001923	129.604340
285.841818	179.615021	141.391754
285.894246	179.100037	137.519836
285.946675	162.220001	131.435394
285.999104	186.443329	140.209198
286.051533	169.696808	129.852295
286.103962	172.977448	141.677856
286.156390	181.598663	138.931274
286.208819	180.015564	141.849518
286.261248	173.797607	152.015686
286.313677	174.007416	143.394470
286.366106	175.552368	135.974884
286.418534	168.075562	129.127502
286.470963	169.200897	140.857697
286.523392	183.391571	146.045685
286.575821	178.127289	146.617889
286.628250	185.737610	133.895874
286.680678	184.612274	142.650604
286.733107	168.495178	147.972107
286.785536	171.871185	134.563446
286.837965	185.527802	141.487122
286.890394	178.031921	134.220123
286.942822	166.645050	142.059326
286.995251	178.089142	141.601562
287.047680	179.748535	137.825012
287.100109	173.072815	151.805878
287.152538	176.181793	133.914948
287.204966	174.179077	138.778687
287.257395	154.476166	132.446289
287.309824	170.116425	138.549805
287.362253	175.037384	134.773254
287.414682	179.786682	134.792328
287.467110	177.249908	135.803223
287.519539	177.078247	144.367218
287.571968	162.620544	150.451660
287.624397	174.903870	135.135651
287.676826	187.702179	144.271851
287.729254	188.350677	138.816833
287.781683	170.688629	140.838623
287.834112	178.146362	134.029388
287.886541	175.304413	146.713257
287.938970	175.056458	137.100220
287.991398	165.367126	132.980347
288.043827	172.595978	132.389069
288.096256	176.239014	147.228241
288.148685	169.849396	127.601624
288.201114	178.012848	133.991241
288.253542	175.113678	137.882233
288.305971	183.792114	144.519806
288.358400	168.552399	133.914948
288.410829	162.982941	132.827759
288.463258	166.206360	131.454468
288.515686	166.110992	138.053894
288.568115	174.217224	134.868622
288.620544	172.863007	132.827759
288.672973	162.849426	128.841400
288.725402	168.838501	134.506226
288.777830	179.271698	144.557953
288.830259	164.394379	123.271942
288.882688	179.138184	142.917633
288.935117	171.184540	131.416321
288.987546	177.307129	145.111084
289.039974	173.473358	136.528015
289.092403	169.792175	136.795044
289.144832	175.361633	141.925812
289.197261	183.067322	146.121979
289.249690	167.026520	131.549835
289.302118	171.642303	132.598877
289.354547	164.985657	128.879547
289.406976	162.467957	148.735046
289.459405	174.446106	136.890411
289.511834	172.595978	121.593475
289.564262	163.936615	125.007629
289.616691	179.195404	140.895844
289.669120	188.007355	145.034790
289.721549	169.162750	135.383606
289.773978	178.222656	145.874023
289.826406	162.658691	133.304596
289.878835	160.770416	127.429962
289.931264	182.094574	140.705109
289.983693	160.160065	138.339996
290.036122	175.933838	136.947632
290.088550	176.486969	143.241882
290.140979	163.097382	134.220123
290.193408	169.792175	127.315521
290.245837	191.459656	137.691498
290.298266	177.516937	130.805969
290.350694	179.424286	144.767761
290.403123	168.285370	139.999390
290.455552	189.666748	154.342651
290.507981	173.473358	146.961212
290.560410	184.192657	143.852234
290.612838	167.579651	137.252808
290.665267	170.345306	140.075684
290.717696	179.347992	144.538879
290.770125	174.674988	140.800476
290.822554	178.775787	134.124756
290.874982	166.606903	128.288269
290.927411	176.200867	135.536194
290.979840	166.511536	131.187439
291.032269	174.407959	141.258240
291.084698	179.748535	139.980316
291.137126	162.582397	134.677887
291.189555	179.424286	142.745972
291.241984	182.247162	146.198273
291.294413	170.879364	133.228302
291.346842	168.361664	128.765106
291.399270	175.628662	131.721497
291.451699	181.007385	146.617889
291.504128	170.574188	151.119232
291.556557	170.650482	136.775970
291.608986	184.040070	147.495270
291.661414	174.808502	142.097473
291.713843	170.116425	150.966644
291.766272	178.394318	135.803223
291.818701	186.157227	135.860443
291.871130	175.743103	140.323639
291.923558	161.609650	140.075684
291.975987	182.704926	143.775940
292.028416	179.023743	144.252777
292.080845	179.653168	146.408081
292.133274	181.007385	139.083862
292.185702	169.162750	128.402710
292.238131	172.309875	140.399933
292.290560	168.228149	143.833160
292.342989	187.110901	145.034790
292.395418	169.143677	149.154663
292.447846	176.868439	146.579742
292.500275	175.666809	139.522552
292.552704	164.642334	129.585266
292.605133	170.822144	136.184692
292.657562	174.064636	145.912170
292.709990	181.617737	137.615204
292.762419	175.514221	140.151978
292.814848	171.432495	137.443542
292.867277	191.326141	146.179199
292.919706	170.745850	135.002136
292.972134	178.089142	142.555237
293.024563	191.555023	148.925781
293.076992	176.868439	136.032104
293.129421	176.200867	144.882202
293.181850	176.506042	145.072937
293.234278	181.503296	131.015778
293.286707	162.734985	134.963989
293.339136	189.590454	143.165588
293.391565	172.481537	140.609741
293.443994	166.091919	137.844086
293.496422	179.233551	141.925812
293.548851	165.672302	135.650635
293.601280	179.939270	150.661469
293.653709	178.642273	140.266418
293.706138	164.413452	135.383606
293.758566	171.833038	136.375427
293.810995	173.206329	133.056641
293.863424	177.516937	141.830444
293.915853	165.805817	129.985809
293.968282	171.146393	135.021210
294.020710	171.623230	142.517090
294.073139	175.132751	130.004883
294.125568	168.933868	133.724213
294.177997	179.042816	143.795013
294.230426	166.110992	140.228271
294.282854	178.718567	140.323639
294.335283	162.925720	142.097473
294.387712	170.726776	137.195587
294.440141	177.955627	136.222839
294.492570	169.448853	133.476257
294.544998	170.898437	136.470795
294.597427	174.427032	141.792297
294.649856	185.871124	144.481659
294.702285	177.974701	134.620667
294.754714	178.947449	137.557983
294.807142	186.061859	148.029327
294.859571	171.947479	138.454437
294.912000	165.653229	131.835937
294.964429	183.982849	140.666962
295.016858	172.348022	136.871338
295.069286	185.108185	143.775940
295.121715	175.437927	151.958466
295.174144	165.920258	136.566162
295.226573	180.377960	144.805908
295.279002	182.628632	148.487091
295.331430	176.258087	141.868591
295.383859	175.018311	130.882263
295.436288	160.961151	130.558014
295.488717	181.026459	137.596130
295.541146	163.402557	127.353668
295.593574	178.394318	144.138336
295.646003	167.999268	134.067535
295.698432	175.647736	147.056580
295.750861	187.301636	145.606995
295.803290	186.710358	147.647858
295.855718	176.086426	141.544342
295.908147	169.792175	134.658813
295.960576	176.448822	138.168335
296.013005	172.367096	141.258240
296.065434	173.015594	140.819550
296.117862	171.165466	140.094757
296.170291	167.999268	145.893097
296.222720	177.745819	139.122009
296.275149	183.315277	137.691498
296.327578	171.356201	138.492584
296.380006	178.050995	144.214630
296.432435	177.040100	137.882233
296.484864	170.764923	147.171021
296.537293	172.309875	132.751465
296.589722	175.609589	136.947632
296.642150	185.375214	150.318146
296.694579	164.604187	131.511688
296.747008	160.999298	134.849548
296.799437	168.075562	133.476257
296.851866	184.059143	140.819550
296.904294	175.971985	134.181976
296.956723	182.380676	135.917664
297.009152	176.582336	134.620667
297.061581	176.219940	131.206512
297.114010	166.702271	130.558014
297.166438	175.495148	148.944855
297.218867	173.053741	135.402679
297.271296	171.222687	133.399963
297.323725	176.486969	140.838623
297.376154	179.481506	138.397217
297.428582	160.732269	135.154724
297.481011	181.903839	146.007538
297.533440	169.773102	135.803223
297.585869	169.963837	133.380890
297.638298	177.936554	135.898590
297.690726	172.100067	131.282806
297.743155	158.805847	141.639709
297.795584	188.560486	145.626068
297.848013	174.541473	147.819519
297.900442	166.549683	141.887665
297.952870	178.184509	141.658783
298.005299	186.100006	137.462616
298.057728	180.416107	143.661499
298.110157	165.214539	133.228302
298.162586	178.890228	143.508911
298.215014	184.898376	142.250061
298.267443	165.500641	135.269165
298.319872	165.328979	133.781433
298.372301	171.108246	135.173798
298.424730	180.664062	133.132935
298.477158	173.568726	140.457153
298.529587	173.225403	144.538879
298.582016	170.764923	136.470795
298.634445	175.571442	132.141113
298.686874	167.655945	134.277344
298.739302	179.347992	140.571594
298.791731	179.500580	133.705139
298.844160	191.650391	145.816803
298.896589	175.056458	128.002167
298.949018	188.713074	139.331818
299.001446	181.903839	142.078400
299.053875	176.563263	143.203735
299.106304	162.258148	134.201050
299.158733	177.288055	137.062073
299.211162	165.996552	131.645203
299.263590	173.645020	138.149261
299.316019	165.309906	137.195587
299.368448	165.615082	136.985779
299.420877	186.786652	136.604309
299.473306	185.508728	146.751404
299.525734	174.942017	142.593384
299.578163	172.901154	130.767822
299.630592	174.350739	137.996674
299.683021	169.639587	142.631531
299.735450	167.636871	141.639709
299.787878	160.217285	136.528015
299.840307	175.266266	130.329132
299.892736	164.966583	135.955811
299.945165	182.857513	148.658752
299.997594	190.029144	148.315430
300.050022	180.492401	141.353607
300.102451	185.852051	153.408051
