07/06/22	12:54 PM
Experiment Type:	Generic
Modulated Cross Correlation
Scattering angle:	45.0
Duration (s):	300
Wavelength (nm):	660.0
Refractive index:	1.330
Viscosity (mPas):	0.890
Temperature (K):	298.1
Laser intensity (mW):	9.938100
Average Count rate  A (kHz):	193.2
Average Count rate  B (kHz):	161.4
Intercept:	1.0000
Cumulant 1st	2076.78
Cumulant 2nd	2081.66	0.00
Cumulant 3rd	2091.07	0.01

Lag time (s)         g2-1
1.600000E-6	0.379425
3.200000E-6	0.378694
4.800000E-6	0.373152
6.400000E-6	0.368251
8.000000E-6	0.363187
9.600000E-6	0.357979
1.120000E-5	0.353545
1.280000E-5	0.348239
1.440000E-5	0.343760
1.600000E-5	0.339137
1.760000E-5	0.334137
1.920000E-5	0.329704
2.080000E-5	0.325240
2.240000E-5	0.321115
2.400000E-5	0.317156
2.560000E-5	0.312664
2.720000E-5	0.308429
3.040000E-5	0.299860
3.360000E-5	0.292147
3.680000E-5	0.284326
4.000000E-5	0.276974
4.320000E-5	0.269593
4.640000E-5	0.262621
4.960000E-5	0.256038
5.280000E-5	0.249217
5.920000E-5	0.236281
6.560000E-5	0.224144
7.200000E-5	0.213038
7.840000E-5	0.202252
8.480000E-5	0.192033
9.120000E-5	0.182140
9.760000E-5	0.173169
0.000104	0.164648
0.000117	0.148879
0.000130	0.134816
0.000142	0.122269
0.000155	0.111144
0.000168	0.100818
0.000181	0.091832
0.000194	0.083765
0.000206	0.076755
0.000232	0.064256
0.000258	0.054298
0.000283	0.046412
0.000309	0.040060
0.000334	0.035113
0.000360	0.031099
0.000386	0.027382
0.000411	0.024552
0.000462	0.019725
0.000514	0.016523
0.000565	0.014148
0.000616	0.012331
0.000667	0.010965
0.000718	0.009931
0.000770	0.009140
0.000821	0.008913
0.000923	0.008194
0.001026	0.007450
0.001128	0.006852
0.001230	0.006729
0.001333	0.006753
0.001435	0.007085
0.001538	0.006866
0.001640	0.005835
0.001845	0.005268
0.002050	0.005663
0.002254	0.006596
0.002459	0.006596
0.002664	0.005838
0.002869	0.006136
0.003074	0.006236
0.003278	0.005936
0.003688	0.006151
0.004098	0.005994
0.004507	0.007232
0.004917	0.006568
0.005326	0.006437
0.005736	0.006180
0.006146	0.006887
0.006555	0.006901
0.007374	0.005783
0.008194	0.005403
0.009013	0.005617
0.009832	0.005931
0.010651	0.006724
0.011470	0.006444
0.012290	0.006246
0.013109	0.005997
0.014747	0.005942
0.016386	0.005725
0.018024	0.006384
0.019662	0.006275
0.021301	0.006275
0.022939	0.006294
0.024578	0.006673
0.026216	0.006206
0.029493	0.006132
0.032770	0.006478
0.036046	0.006273
0.039323	0.006463
0.042600	0.006250
0.045877	0.006639
0.049154	0.006537
0.052430	0.006338
0.058984	0.006578
0.065538	0.006060
0.072091	0.006466
0.078645	0.006421
0.085198	0.006519
0.091752	0.006095
0.098306	0.006214
0.104859	0.006353
0.117966	0.006468
0.131074	0.006301
0.144181	0.006260
0.157288	0.006501
0.170395	0.006181
0.183502	0.006416
0.196610	0.006217
0.209717	0.006338
0.235931	0.006317
0.262146	0.006457
0.288360	0.006324
0.314574	0.006335
0.340789	0.006362
0.367003	0.006441
0.393218	0.006514
0.419432	0.006545
0.471861	0.006470
0.524290	0.006517
0.576718	0.006746
0.629147	0.006529
0.681576	0.006616
0.734005	0.006667
0.786434	0.006644
0.838862	0.006602
0.943720	0.006664
1.048578	0.006719
1.153435	0.006810
1.258293	0.006794
1.363150	0.006979
1.468008	0.007064
1.572866	0.006999
1.677723	0.007064
1.887438	0.007197
2.097154	0.007328
2.306869	0.007392
2.516584	0.007498
2.726299	0.007615
2.936014	0.007731
3.145730	0.007775
3.355445	0.007883
3.774875	0.007990
4.194305	0.008220
4.613736	0.008481
5.033166	0.008729
5.452597	0.008870
5.872027	0.009150
6.291458	0.009372
6.710888	0.009588
7.549749	0.010070
8.388610	0.010486
9.227470	0.010909
10.066331	0.011414
10.905192	0.011852
11.744053	0.012200
12.582913	0.012605
13.421775	0.013047
15.099496	0.013966
16.777218	0.014801
18.454939	0.015705
20.132660	0.016597
21.810383	0.017581
23.488104	0.018575
25.165825	0.019638
26.843548	0.020799
30.198990	0.022739
33.554432	0.024873
36.909878	0.026900
40.265320	0.029015
43.620762	0.031271
46.976208	0.033390
50.331650	0.035406
53.687092	0.037083
60.397980	0.036433
67.108864	0.035892
73.819756	0.035510
80.530640	0.035073
87.241524	0.034877
93.952408	0.034824
100.663300	0.034742
107.374184	0.034717
120.795959	0.034881
134.217728	0.034469
147.639496	0.034469
161.061279	0.034585
174.483047	0.034611
187.904816	0.034625
201.326599	0.034643
214.748367	0.035365
241.591919	0.035204
268.435455	0.038612

Count Rate History (KHz)  CR CHA / CR CHB
0.000000	156.116486	119.533539
0.052429	158.157349	137.004852
0.104858	181.064606	144.519806
0.157286	152.645111	123.825073
0.209715	145.568848	126.514435
0.262144	175.895691	137.825012
0.314573	145.378113	126.514435
0.367002	163.307190	137.386322
0.419430	184.631348	146.141052
0.471859	170.230865	143.165588
0.524288	171.527863	142.898560
0.576717	170.974731	129.222870
0.629146	159.759521	114.707947
0.681574	155.277252	144.805908
0.734003	151.176453	146.636963
0.786432	173.492432	136.127472
0.838861	174.140930	143.013000
0.891290	177.822113	140.075684
0.943718	174.388885	152.854919
0.996147	168.476105	133.552551
1.048576	171.833038	139.255524
1.101005	166.091919	131.797791
1.153434	178.642273	124.320984
1.205862	175.151825	135.002136
1.258291	166.015625	115.222931
1.310720	168.037415	135.116577
1.363149	180.740356	121.555328
1.415578	164.318085	121.669769
1.468006	171.108246	128.116608
1.520435	155.811310	139.827728
1.572864	156.097412	130.081177
1.625293	163.574219	134.906769
1.677722	161.037445	144.424438
1.730150	144.634247	129.776001
1.782579	155.658722	142.269135
1.835008	170.021057	133.686066
1.887437	168.666840	141.258240
1.939866	153.598785	129.489899
1.992294	161.457062	136.699677
2.044723	151.062012	133.380890
2.097152	146.827698	141.620636
2.149581	163.002014	146.865845
2.202010	160.942078	128.726959
2.254438	155.887604	134.086609
2.306867	160.064697	147.953033
2.359296	156.459808	126.533508
2.411725	166.358948	124.988556
2.464154	141.658783	123.806000
2.516582	150.737762	126.209259
2.569011	175.876617	130.023956
2.621440	156.612396	122.680664
2.673869	142.974854	129.356384
2.726298	155.105591	129.222870
2.778726	178.966522	147.380829
2.831155	169.734955	157.165527
2.883584	157.051086	130.348206
2.936013	164.451599	129.699707
2.988442	169.563293	151.691437
3.040870	152.168274	131.607056
3.093299	178.890228	132.961273
3.145728	161.457062	143.241882
3.198157	155.887604	128.936768
3.250586	154.457092	131.607056
3.303014	165.367126	155.773163
3.355443	182.266235	138.397217
3.407872	168.476105	145.359039
3.460301	145.530701	122.470856
3.512730	161.170959	140.819550
3.565158	164.413452	148.830414
3.617587	159.721375	140.590668
3.670016	166.282654	159.683228
3.722445	148.258209	139.427185
3.774874	150.661469	119.419098
3.827302	152.053833	134.983063
3.879731	171.604156	140.609741
3.932160	168.266296	135.478973
3.984589	157.451630	135.250092
4.037018	166.530609	131.416321
4.089446	153.083801	126.171112
4.141875	132.999420	107.059479
4.194304	160.827637	123.958588
4.246733	145.759583	131.530762
4.299162	166.740417	120.372772
4.351590	164.375305	137.691498
4.404019	158.252716	128.917694
4.456448	164.623260	130.176544
4.508877	151.824951	120.811462
4.561306	157.184601	117.282867
4.613734	161.952972	127.410889
4.666163	159.225464	131.187439
4.718592	146.293640	128.898621
4.771021	155.239105	131.626129
4.823450	143.070221	140.304565
4.875878	143.909454	126.762390
4.928307	150.814056	128.917694
4.980736	164.470673	131.473541
5.033165	157.127380	121.822357
5.085594	161.781311	131.626129
5.138022	162.200928	133.075714
5.190451	183.677673	148.792267
5.242880	161.514282	117.683411
5.295309	148.239136	117.664337
5.347738	167.922974	135.650635
5.400166	171.203613	134.277344
5.452595	163.078308	133.209229
5.505024	161.781311	128.746033
5.557453	152.606964	137.042999
5.609882	170.440674	129.623413
5.662310	150.680542	127.696991
5.714739	143.661499	126.361847
5.767168	171.623230	124.511719
5.819597	159.511566	134.372711
5.872026	159.339905	115.127563
5.924454	166.854858	127.754211
5.976883	170.688629	133.628845
6.029312	168.609619	123.977661
6.081741	151.195526	124.950409
6.134170	166.854858	133.285522
6.186598	165.882111	146.369934
6.239027	160.694122	139.961243
6.291456	153.713226	126.609802
6.343885	166.664124	128.631592
6.396314	161.037445	131.301880
6.448742	161.132812	124.568939
6.501171	160.751343	130.729675
6.553600	150.127411	130.825043
6.606029	154.170990	134.391785
6.658458	155.105591	130.043030
6.710886	134.677887	125.904083
6.763315	164.813995	130.138397
6.815744	157.432556	117.893219
6.868173	154.495239	121.612549
6.920602	145.320892	124.702454
6.973030	166.721344	129.661560
7.025459	157.947540	142.345428
7.077888	152.530670	131.855011
7.130317	151.634216	130.176544
7.182746	153.636932	138.740540
7.235174	160.789490	123.806000
7.287603	178.642273	149.765015
7.340032	139.198303	121.440887
7.392461	179.042816	138.130188
7.444890	174.922943	140.953064
7.497318	161.895752	143.337250
7.549747	163.936615	140.399933
7.602176	177.631378	128.211975
7.654605	161.972046	139.122009
7.707034	158.672333	139.102936
7.759462	160.560608	130.271912
7.811891	159.358978	126.380920
7.864320	170.364380	130.405426
7.916749	171.890259	147.361755
7.969178	173.549652	136.146545
8.021606	163.478851	136.699677
8.074035	163.745880	120.429993
8.126464	157.661438	127.334595
8.178893	156.688690	140.151978
8.231322	138.034821	122.795105
8.283750	140.247345	128.841400
8.336179	156.059265	128.822327
8.388608	156.135559	130.825043
8.441037	160.751343	131.397247
8.493466	157.794952	132.179260
8.545894	173.168182	132.808685
8.598323	147.323608	137.634277
8.650752	168.838501	124.721527
8.703181	155.410767	125.522614
8.755610	158.424377	152.397156
8.808038	155.830383	133.113861
8.860467	141.410828	124.778748
8.912896	169.143677	141.029358
8.965325	143.585205	121.574402
9.017754	145.587921	128.841400
9.070182	170.192719	122.470856
9.122611	170.688629	139.904022
9.175040	154.685974	126.838684
9.227469	147.132874	132.865906
9.279898	149.040222	137.481689
9.332326	156.574249	125.694275
9.384755	166.130066	129.508972
9.437184	158.958435	135.669708
9.489613	153.083801	125.236511
9.542042	161.018372	136.833191
9.594470	142.993927	121.688843
9.646899	146.331787	130.329132
9.699328	155.582428	129.489899
9.751757	159.130096	120.124817
9.804186	168.094635	127.944946
9.856614	143.947601	145.225525
9.909043	154.266357	125.408173
9.961472	159.759521	129.470825
10.013901	172.023773	126.228333
10.066330	153.865814	125.408173
10.118758	166.397095	133.991241
10.171187	150.928497	123.405457
10.223616	161.857605	127.830505
10.276045	170.230865	133.037567
10.328474	164.527893	122.375488
10.380902	189.857483	136.585236
10.433331	165.328979	131.492615
10.485760	181.312561	128.383636
10.538189	181.903839	139.026642
10.590618	150.680542	129.356384
10.643046	161.476135	131.778717
10.695475	171.470642	146.598816
10.747904	155.010223	127.487183
10.800333	165.805817	129.814148
10.852762	160.388947	134.849548
10.905190	166.282654	126.113892
10.957619	149.593353	133.705139
11.010048	158.443451	135.726929
11.062477	159.416199	130.004883
11.114906	147.247314	133.457184
11.167334	163.841248	137.653351
11.219763	156.726837	133.666992
11.272192	163.230896	144.844055
11.324621	153.465271	146.656036
11.377050	162.925720	123.043060
11.429478	163.078308	129.222870
11.481907	172.996521	155.773163
11.534336	156.993866	147.113800
11.586765	156.040192	122.718811
11.639194	159.797668	136.547089
11.691622	141.773224	126.762390
11.744051	168.743134	138.759613
11.796480	167.007446	135.402679
11.848909	162.296295	140.113831
11.901338	146.141052	133.609772
11.953766	169.563293	132.846832
12.006195	145.473480	129.718781
12.058624	171.127319	139.598846
12.111053	164.699554	132.274628
12.163482	147.476196	134.105682
12.215910	182.018280	147.094727
12.268339	152.359009	118.637085
12.320768	176.696777	133.762360
12.373197	169.754028	132.026672
12.425626	175.857544	135.784149
12.478054	156.593323	130.119324
12.530483	158.576965	125.846863
12.582912	182.418823	124.893188
12.635341	164.318085	138.607025
12.687770	139.675140	133.838654
12.740198	163.135529	130.672455
12.792627	169.525146	132.446289
12.845056	147.151947	131.015778
12.897485	151.481628	140.132904
12.949914	164.890289	135.498047
13.002342	149.822235	135.173798
13.054771	154.018402	138.511658
13.107200	148.544312	131.454468
13.159629	153.350830	123.329163
13.212058	159.015656	128.211975
13.264486	141.258240	136.184692
13.316915	150.489807	125.827789
13.369344	156.688690	129.909515
13.421773	150.604248	120.582581
13.474202	174.388885	136.032104
13.526630	147.171021	143.775940
13.579059	158.977509	137.271881
13.631488	159.778595	134.105682
13.683917	171.298981	150.375366
13.736346	152.854919	122.375488
13.788774	155.448914	121.402740
13.841203	157.947540	134.353638
13.893632	155.353546	137.748718
13.946061	152.893066	128.288269
13.998490	168.609619	131.149292
14.050918	157.852173	148.601532
14.103347	148.906708	130.004883
14.155776	149.154663	116.157532
14.208205	147.190094	128.459930
14.260634	141.067505	124.378204
14.313062	160.694122	121.250153
14.365491	155.811310	130.176544
14.417920	158.405304	137.119293
14.470349	151.004791	128.574371
14.522778	156.250000	135.250092
14.575206	159.854889	125.980377
14.627635	159.149170	121.059418
14.680064	152.072906	133.762360
14.732493	160.541534	115.165710
14.784922	152.435303	132.389069
14.837350	167.407990	136.489868
14.889779	174.045563	141.143799
14.942208	149.726868	117.797852
14.994637	156.230927	142.211914
15.047066	178.947449	136.222839
15.099494	147.209167	130.977631
15.151923	173.549652	130.214691
15.204352	148.696899	142.574310
15.256781	145.282745	128.021240
15.309210	152.454376	140.743256
15.361638	160.675049	141.658783
15.414067	155.735016	144.004822
15.466496	155.868530	135.250092
15.518925	148.868561	125.541687
15.571354	174.388885	138.282776
15.623782	170.230865	137.500763
15.676211	171.585083	153.274536
15.728640	163.726807	132.045746
15.781069	156.593323	138.893127
15.833498	166.187286	134.334564
15.885926	166.339874	124.492645
15.938355	165.843964	140.151978
15.990784	152.683258	128.479004
16.043213	170.650482	127.849579
16.095642	161.018372	129.470825
16.148070	161.991119	139.503479
16.200499	162.734985	121.917725
16.252928	155.143738	135.059357
16.305357	165.843964	134.830475
16.357786	167.655945	154.991150
16.410214	154.857635	130.424500
16.462643	149.497986	134.696960
16.515072	156.440735	136.241913
16.567501	163.555145	121.154785
16.619930	149.974823	136.528015
16.672358	143.623352	129.909515
16.724787	147.247314	123.500824
16.777216	161.457062	134.067535
16.829645	156.288147	148.334503
16.882074	157.947540	123.500824
16.934502	151.386261	130.157471
16.986931	157.279968	141.429901
17.039360	139.560699	126.914978
17.091789	147.361755	124.206543
17.144218	151.596069	130.500793
17.196646	166.988373	134.429932
17.249075	153.617859	120.296478
17.301504	153.350830	131.359100
17.353933	156.764984	127.716064
17.406362	146.656036	137.138367
17.458790	166.053772	133.819580
17.511219	151.863098	130.653381
17.563648	141.963959	127.773285
17.616077	169.582367	139.446259
17.668506	153.102875	138.854980
17.720934	151.805878	118.179321
17.773363	162.620544	124.607086
17.825792	172.843933	150.241852
17.878221	170.383453	123.481750
17.930650	145.053864	130.233765
17.983078	179.328918	145.378113
18.035507	146.293640	138.950348
18.087936	161.933899	144.271851
18.140365	168.533325	143.699646
18.192794	147.438049	134.525299
18.245222	157.127380	139.045715
18.297651	163.555145	139.465332
18.350080	152.339935	125.102997
18.402509	161.018372	111.198425
18.454938	155.391693	124.721527
18.507366	145.835876	124.473572
18.559795	154.972076	123.596191
18.612224	164.108276	133.361816
18.664653	152.187347	134.620667
18.717082	167.942047	136.413574
18.769510	153.236389	131.683350
18.821939	156.021118	133.132935
18.874368	144.042969	117.912292
18.926797	144.958496	127.506256
18.979226	170.497894	141.162872
19.031654	163.707733	130.977631
19.084083	166.072845	128.269196
19.136512	165.100098	137.157440
19.188941	144.729614	125.579834
19.241370	175.971985	137.844086
19.293798	151.309967	147.800446
19.346227	165.519714	145.111084
19.398656	166.797638	137.443542
19.451085	152.587891	121.383667
19.503514	141.582489	119.876862
19.555942	151.786804	135.498047
19.608371	165.462494	128.250122
19.660800	168.914795	128.383636
19.713229	207.366943	166.740417
19.765658	155.429840	116.825104
19.818086	175.361633	138.034821
19.870515	155.143738	127.506256
19.922944	157.260895	148.448944
19.975373	171.699524	126.438141
20.027802	157.928467	149.459839
20.080230	165.252686	125.179291
20.132659	177.879333	136.184692
20.185088	165.596008	127.449036
20.237517	154.914856	135.517120
20.289946	158.119202	126.857758
20.342374	156.288147	121.650696
20.394803	149.116516	134.963989
20.447232	154.380798	118.579865
20.499661	144.424438	123.462677
20.552090	160.331726	126.342773
20.604518	167.369843	135.574341
20.656947	148.544312	133.075714
20.709376	158.710480	122.509003
20.761805	172.576904	138.683319
20.814234	149.021149	127.506256
20.866662	153.579712	127.449036
20.919091	158.576965	133.857727
20.971520	173.816681	128.192902
21.023949	166.454315	130.748749
21.076378	169.315338	129.833221
21.128806	182.533264	145.416260
21.181235	145.130157	134.620667
21.233664	173.454285	126.705170
21.286093	174.694061	132.236481
21.338522	176.544189	138.797760
21.390950	160.179138	146.274567
21.443379	153.541565	128.345490
21.495808	149.192810	126.228333
21.548237	158.042908	131.225586
21.600666	172.080994	130.901337
21.653094	157.203674	131.282806
21.705523	149.383545	139.293671
21.757952	140.361786	130.405426
21.810381	149.402618	117.359161
21.862810	154.075623	132.656097
21.915238	149.707794	128.612518
21.967667	176.181793	146.160126
22.020096	181.102753	135.211945
22.072525	170.288086	134.925842
22.124954	166.492462	139.884949
22.177382	179.672241	128.993988
22.229811	148.200989	127.811432
22.282240	154.399872	121.707916
22.334669	178.070068	147.132874
22.387098	144.844055	132.217407
22.439526	145.778656	137.348175
22.491955	148.353577	137.557983
22.544384	159.568787	135.669708
22.596813	155.963898	127.716064
22.649242	155.887604	134.696960
22.701670	157.108307	130.748749
22.754099	169.410706	144.329071
22.806528	168.495178	131.855011
22.858957	152.778625	114.593506
22.911386	174.636841	138.645172
22.963814	168.857574	121.345520
23.016243	143.413544	128.803253
23.068672	151.119232	131.530762
23.121101	159.606934	127.887726
23.173530	149.745941	115.013123
23.225958	149.002075	124.073029
23.278387	172.080994	131.664276
23.330816	167.217255	129.871368
23.383245	180.778503	134.162903
23.435674	152.130127	130.729675
23.488102	165.290833	136.756897
23.540531	173.110962	144.405365
23.592960	162.124634	143.451691
23.645389	160.388947	133.590698
23.697818	153.408051	124.130249
23.750246	150.012970	126.380920
23.802675	141.410828	131.149292
23.855104	149.040222	131.568909
23.907533	148.773193	128.574371
23.959962	140.972137	119.972229
24.012390	163.249969	132.045746
24.064819	137.138367	123.882294
24.117248	165.748596	125.045776
24.169677	151.252747	135.116577
24.222106	161.190033	124.340057
24.274534	170.974731	132.446289
24.326963	151.576996	125.541687
24.379392	144.424438	132.656097
24.431821	161.018372	121.936798
24.484250	156.993866	121.479034
24.536678	145.721436	136.928558
24.589107	152.130127	126.285553
24.641536	167.427063	126.991272
24.693965	153.121948	123.653412
24.746394	135.974884	132.427216
24.798822	152.301788	121.593475
24.851251	157.566071	125.217438
24.903680	169.620514	144.634247
24.956109	166.168213	125.656128
25.008538	160.503387	125.637054
25.060966	134.983063	124.454498
25.113395	165.252686	151.939392
25.165824	174.007416	137.710571
25.218253	169.696808	133.628845
25.270682	161.705017	146.522522
25.323110	156.822205	125.637054
25.375539	156.421661	123.767853
25.427968	154.418945	123.672485
25.480397	143.547058	123.729706
25.532826	156.917572	135.631561
25.585254	172.824860	132.503510
25.637683	157.756805	116.024017
25.690112	169.086456	119.647980
25.742541	174.503326	128.192902
25.794970	160.617828	120.925903
25.847398	165.042877	136.718750
25.899827	159.778595	131.015778
25.952256	157.947540	124.053955
26.004685	151.062012	128.917694
26.057114	187.778473	128.688812
26.109542	147.686005	132.369995
26.161971	140.705109	121.974945
26.214400	154.037476	126.914978
26.266829	151.844025	132.255554
26.319258	158.500671	130.519867
26.371686	163.345337	147.495270
26.424115	162.448883	124.244690
26.476544	144.996643	121.269226
26.528973	150.108337	134.086609
26.581402	157.375336	129.604340
26.633830	170.993805	123.310089
26.686259	155.715942	127.277374
26.738688	161.094666	122.108459
26.791117	163.936615	138.854980
26.843546	147.247314	129.985809
26.895974	188.484192	156.002045
26.948403	164.508820	130.481720
27.000832	160.999298	130.920410
27.053261	156.040192	129.013062
27.105690	164.299011	131.149292
27.158118	163.249969	123.901367
27.210547	167.102814	127.964020
27.262976	171.794891	152.492523
27.315405	159.244537	131.912231
27.367834	154.514313	145.740509
27.420262	170.269012	143.775940
27.472691	139.026642	127.849579
27.525120	144.290924	113.315582
27.577549	164.794922	129.108429
27.629978	164.566040	133.113861
27.682406	166.149139	133.495331
27.734835	168.514252	115.718842
27.787264	167.808533	136.680603
27.839693	151.653290	129.737854
27.892122	147.972107	131.664276
27.944550	150.966644	128.269196
27.996979	170.040131	134.582520
28.049408	163.326263	134.830475
28.101837	174.560547	121.631622
28.154266	148.010254	115.375519
28.206694	156.135559	130.844116
28.259123	150.585175	133.419037
28.311552	164.813995	128.669739
28.363981	183.105469	153.865814
28.416410	138.473511	134.048462
28.468838	180.816650	136.032104
28.521267	173.702240	149.707794
28.573696	160.808563	134.677887
28.626125	150.012970	113.563538
28.678554	151.271820	135.326385
28.730982	162.467957	143.432617
28.783411	149.421692	130.424500
28.835840	156.917572	134.239197
28.888269	168.476105	136.928558
28.940698	166.034698	121.154785
28.993126	153.198242	119.857788
29.045555	162.963867	133.762360
29.097984	176.353455	125.293732
29.150413	163.822174	142.879486
29.202842	145.092010	136.222839
29.255270	188.579559	149.784088
29.307699	153.102875	119.247437
29.360128	168.895721	140.094757
29.412557	158.405304	131.225586
29.464986	168.094635	138.282776
29.517414	179.157257	147.361755
29.569843	156.116486	120.677948
29.622272	188.503265	138.988495
29.674701	158.081055	126.380920
29.727130	167.121887	126.724243
29.779558	161.819458	128.440857
29.831987	157.585144	137.882233
29.884416	149.135590	121.250153
29.936845	158.920288	125.885010
29.989274	154.361725	144.557953
30.041702	159.893036	147.914886
30.094131	148.048401	129.070282
30.146560	153.903961	131.397247
30.198989	165.290833	137.481689
30.251418	159.873962	131.244659
30.303846	161.380768	130.119324
30.356275	183.067322	140.113831
30.408704	150.241852	116.424561
30.461133	146.179199	123.119354
30.513562	156.669617	126.171112
30.565990	149.936676	124.702454
30.618419	141.716003	132.102966
30.670848	173.187256	151.004791
30.723277	160.026550	127.544403
30.775706	164.794922	142.974854
30.828134	152.339935	126.628876
30.880563	153.808594	138.130188
30.932992	138.683319	127.449036
30.985421	177.345276	147.113800
31.037850	155.429840	142.097473
31.090278	165.958405	149.688721
31.142707	153.789520	124.053955
31.195136	146.026611	112.304687
31.247565	140.953064	140.686035
31.299994	174.446106	130.424500
31.352422	141.334534	124.454498
31.404851	178.089142	125.179291
31.457280	158.863068	125.713348
31.509709	141.773224	127.410889
31.562138	188.560486	136.985779
31.614566	160.903931	136.852264
31.666995	163.326263	145.301819
31.719424	141.582489	131.282806
31.771853	159.072876	134.754181
31.824282	159.835815	135.192871
31.876710	146.598816	109.710693
31.929139	158.081055	120.353699
31.981568	149.765015	122.795105
32.033997	156.383514	117.359161
32.086426	163.841248	127.296448
32.138854	147.590637	127.735138
32.191283	149.250031	135.135651
32.243712	169.715881	127.201080
32.296141	174.827576	142.879486
32.348570	160.846710	134.334564
32.400998	153.026581	125.770569
32.453427	169.792175	120.143890
32.505856	157.394409	126.781464
32.558285	164.508820	154.838562
32.610714	159.950256	126.571655
32.663142	154.342651	132.579803
32.715571	165.882111	129.394531
32.768000	164.566040	134.468079
32.820429	161.361694	129.699707
32.872858	154.991150	130.081177
32.925286	155.277252	133.190155
32.977715	163.478851	116.958618
33.030144	192.985535	143.108368
33.082573	164.451599	134.677887
33.135002	163.383484	127.506256
33.187430	166.053772	134.601593
33.239859	150.356293	132.255554
33.292288	166.702271	128.440857
33.344717	175.266266	151.824951
33.397146	154.495239	126.266479
33.449574	184.230804	137.729645
33.502003	153.923035	130.558014
33.554432	144.710541	139.350891
33.606861	173.892975	140.209198
33.659290	158.004761	129.661560
33.711718	164.489746	131.683350
33.764147	155.868530	140.991211
33.816576	187.358856	140.781403
33.869005	148.353577	125.846863
33.921434	164.833069	129.852295
33.973862	155.143738	120.964050
34.026291	149.040222	137.157440
34.078720	159.912109	124.683380
34.131149	149.002075	134.239197
34.183578	140.686035	122.299194
34.236006	155.563354	137.863159
34.288435	160.179138	143.203735
34.340864	171.070099	139.751434
34.393293	152.606964	136.432648
34.445722	144.329071	120.639801
34.498150	148.715973	136.795044
34.550579	138.301849	129.394531
34.603008	157.661438	142.574310
34.655437	155.086517	133.819580
34.707866	152.320862	132.122040
34.760294	169.506073	118.427277
34.812723	149.612427	131.568909
34.865152	160.045624	137.157440
34.917581	173.034668	141.296387
34.970010	161.705017	125.350952
35.022438	144.348145	113.601685
35.074867	161.952972	126.476288
35.127296	168.514252	120.697021
35.179725	167.388916	134.468079
35.232154	181.293488	138.435364
35.284582	177.421570	150.222778
35.337011	175.781250	147.056580
35.389440	146.865845	118.732452
35.441869	163.860321	144.596100
35.494298	162.544250	138.397217
35.546726	159.397125	128.250122
35.599155	160.522461	133.419037
35.651584	158.443451	129.928589
35.704013	146.389008	133.514404
35.756442	161.876678	122.509003
35.808870	162.963867	141.410828
35.861299	167.312622	145.740509
35.913728	168.724060	148.983002
35.966157	140.037537	120.468140
36.018586	155.620575	149.173737
36.071014	162.448883	141.334534
36.123443	162.029266	136.432648
36.175872	170.116425	140.857697
36.228301	167.160034	147.895813
36.280730	158.004761	136.909485
36.333158	154.132843	126.991272
36.385587	153.846741	116.233826
36.438016	164.375305	139.331818
36.490445	153.617859	131.187439
36.542874	160.713196	140.113831
36.595302	163.764954	125.808716
36.647731	167.179108	124.664307
36.700160	167.179108	155.239105
36.752589	158.100128	143.127441
36.805018	160.713196	138.092041
36.857446	168.228149	130.081177
36.909875	162.372589	133.457184
36.962304	153.808594	132.064819
37.014733	142.040253	110.988617
37.067162	170.536041	145.530701
37.119590	161.552429	130.825043
37.172019	155.143738	124.473572
37.224448	172.348022	143.146515
37.276877	174.598694	133.304596
37.329306	151.824951	129.528046
37.381734	145.931244	143.985748
37.434163	158.348083	135.936737
37.486592	154.190063	142.307281
37.539021	148.487091	136.089325
37.591450	173.778534	147.571564
37.643878	157.299042	116.539001
37.696307	159.187317	130.805969
37.748736	156.707764	126.724243
37.801165	147.151947	115.966797
37.853594	158.271790	125.122070
37.906022	167.922974	124.454498
37.958451	149.269104	139.198303
38.010880	148.620605	139.007568
38.063309	142.459869	128.307343
38.115738	173.168182	131.549835
38.168166	176.239014	129.394531
38.220595	141.162872	126.247406
38.273024	149.745941	138.568878
38.325453	136.413574	127.830505
38.377882	170.154572	136.909485
38.430310	163.135529	135.669708
38.482739	153.903961	133.762360
38.535168	169.353485	144.119263
38.587597	176.811218	145.168304
38.640026	140.419006	121.002197
38.692454	142.765045	123.806000
38.744883	156.669617	127.220154
38.797312	167.922974	143.814087
38.849741	176.372528	144.157410
38.902170	159.587860	129.013062
38.954598	160.388947	134.010315
39.007027	173.568726	133.953094
39.059456	144.462585	124.931335
39.111885	178.585052	143.909454
39.164314	166.797638	148.620605
39.216742	155.868530	139.732361
39.269171	152.969360	125.751495
39.321600	148.220062	140.724182
39.374029	154.438019	147.914886
39.426458	158.634186	128.803253
39.478886	155.010223	126.686096
39.531315	163.345337	141.830444
39.583744	172.252655	134.201050
39.636173	157.814026	124.073029
39.688602	151.596069	128.383636
39.741030	166.034698	132.999420
39.793459	164.833069	126.914978
39.845888	138.721466	124.206543
39.898317	178.794861	147.113800
39.950746	179.195404	137.023926
40.003174	147.495270	131.797791
40.055603	178.127289	131.092072
40.108032	159.149170	140.647888
40.160461	155.220032	132.541656
40.212890	168.724060	143.241882
40.265318	158.119202	124.015808
40.317747	168.933868	133.533478
40.370176	137.538910	120.792389
40.422605	152.721405	120.239258
40.475034	166.435242	136.699677
40.527462	162.830353	133.972168
40.579891	159.263611	138.950348
40.632320	176.162720	137.710571
40.684749	154.838562	125.179291
40.737178	167.140961	129.299164
40.789606	170.001984	145.301819
40.842035	151.920319	143.795013
40.894464	157.432556	123.691559
40.946893	156.173706	130.004883
40.999322	177.917480	140.857697
41.051750	165.615082	138.053894
41.104179	174.198151	152.587891
41.156608	140.419006	125.331879
41.209037	169.010162	142.974854
41.261466	166.454315	123.672485
41.313894	166.397095	136.070251
41.366323	159.950256	148.029327
41.418752	146.484375	119.953156
41.471181	156.059265	125.465393
41.523610	140.514374	125.217438
41.576038	172.901154	131.530762
41.628467	138.645172	121.173859
41.680896	166.969299	158.119202
41.733325	153.236389	134.258270
41.785754	144.767761	125.827789
41.838182	162.410736	139.865875
41.890611	151.462555	127.868652
41.943040	154.342651	117.912292
41.995469	187.454224	146.961212
42.047898	157.012939	143.203735
42.100326	178.718567	133.228302
42.152755	154.151917	129.508972
42.205184	186.882019	130.214691
42.257613	159.568787	136.795044
42.310042	155.048370	132.617950
42.362470	147.705078	118.370056
42.414899	159.206390	127.258301
42.467328	156.192780	152.244568
42.519757	135.288239	124.092102
42.572186	164.794922	123.977661
42.624614	174.846649	136.680603
42.677043	151.977539	116.653442
42.729472	152.454376	131.721497
42.781901	159.549713	137.863159
42.834330	153.770447	113.716125
42.886758	157.966614	138.721466
42.939187	160.961151	134.277344
42.991616	168.609619	135.993958
43.044045	166.721344	139.579773
43.096474	149.555206	134.906769
43.148902	157.585144	138.511658
43.201331	168.972015	142.135620
43.253760	164.775848	146.923065
43.306189	149.097443	133.171082
43.358618	161.590576	117.397308
43.411046	147.151947	129.089355
43.463475	165.500641	136.566162
43.515904	166.816711	132.045746
43.568333	164.051056	123.291016
43.620762	155.353546	133.361816
43.673190	162.124634	140.609741
43.725619	159.111023	141.258240
43.778048	144.386292	132.656097
43.830477	181.674957	126.857758
43.882906	172.271729	127.868652
43.935334	161.285400	140.609741
43.987763	158.290863	138.263702
44.040192	183.353424	141.277313
44.092621	178.241730	129.318237
44.145050	166.568756	135.822296
44.197478	150.489807	132.350922
44.249907	156.269073	140.266418
44.302336	159.950256	135.383606
44.354765	161.361694	116.710663
44.407194	181.617737	130.157471
44.459622	150.051117	121.803284
44.512051	140.876770	151.424408
44.564480	157.947540	133.247375
44.616909	160.026550	138.301849
44.669338	152.721405	129.585266
44.721766	145.492554	132.141113
44.774195	167.026520	142.631531
44.826624	154.342651	115.489960
44.879053	145.702362	138.664246
44.931482	157.203674	141.086578
44.983910	154.190063	147.762299
45.036339	175.991058	142.345428
45.088768	157.051086	126.533508
45.141197	168.876648	130.805969
45.193626	158.271790	139.675140
45.246054	165.996552	132.637024
45.298483	139.942169	132.713318
45.350912	163.574219	151.214600
45.403341	159.893036	127.067566
45.455770	183.887482	134.849548
45.508198	165.653229	136.146545
45.560627	144.500732	119.419098
45.613056	182.361603	136.528015
45.665485	170.841217	137.557983
45.717914	159.206390	140.476227
45.770342	174.980164	137.462616
45.822771	168.666840	136.966705
45.875200	148.506165	126.438141
45.927629	161.857605	135.116577
45.980058	173.377991	126.266479
46.032486	183.105469	145.587921
46.084915	166.091919	144.290924
46.137344	173.835754	133.838654
46.189773	166.759491	134.696960
46.242202	146.217346	129.241943
46.294630	173.721313	153.198242
46.347059	155.124664	139.331818
46.399488	150.928497	120.944977
46.451917	143.699646	145.454407
46.504346	171.051025	134.315491
46.556774	165.309906	129.299164
46.609203	152.301788	128.765106
46.661632	154.342651	132.808685
46.714061	164.661407	153.446198
46.766490	167.331696	132.999420
46.818918	164.012909	147.304535
46.871347	140.228271	122.165680
46.923776	175.762177	133.781433
46.976205	148.448944	143.585205
47.028634	162.296295	144.042969
47.081062	175.113678	137.138367
47.133491	151.309967	134.258270
47.185920	177.154541	135.955811
47.238349	158.214569	132.007599
47.290778	144.214630	129.642487
47.343206	171.508789	132.293701
47.395635	157.680511	127.143860
47.448064	178.279877	146.713257
47.500493	169.334412	127.563477
47.552922	153.522491	130.290985
47.605350	166.187286	138.225555
47.657779	158.729553	130.805969
47.710208	149.288177	116.977692
47.762637	162.239075	141.639709
47.815066	166.931152	143.775940
47.867494	171.451569	157.527924
47.919923	170.783997	126.590729
47.972352	172.309875	158.805847
48.024781	167.369843	128.879547
48.077210	153.160095	136.547089
48.129638	171.642303	136.127472
48.182067	152.263641	148.906708
48.234496	160.598755	138.702393
48.286925	165.481567	132.503510
48.339354	178.375244	146.141052
48.391782	162.239075	142.078400
48.444211	170.040131	134.029388
48.496640	166.378021	131.874084
48.549069	174.636841	150.432587
48.601498	150.775909	132.522583
48.653926	160.427094	145.053864
48.706355	168.704987	138.397217
48.758784	164.852142	132.026672
48.811213	156.135559	139.636993
48.863642	135.860443	129.146576
48.916070	158.100128	131.168365
48.968499	156.993866	141.220093
49.020928	181.312561	145.187378
49.073357	164.012909	142.898560
49.125786	148.754120	119.609833
49.178214	139.064789	119.686127
49.230643	186.672211	135.574341
49.283072	167.312622	143.070221
49.335501	154.953003	147.876740
49.387930	161.857605	131.244659
49.440358	172.615051	141.010284
49.492787	157.871246	153.541565
49.545216	170.001984	151.329041
49.597645	185.852051	154.285431
49.650074	164.413452	137.557983
49.702502	181.560516	143.184662
49.754931	163.002014	125.980377
49.807360	155.715942	134.334564
49.859789	149.726868	122.833252
49.912218	191.745758	132.541656
49.964646	155.467987	145.893097
50.017075	167.293549	134.735107
50.069504	168.380737	139.274597
50.121933	183.162689	156.288147
50.174362	183.792114	128.726959
50.226790	164.909363	138.435364
50.279219	168.190002	142.974854
50.331648	159.358978	150.489807
50.384077	174.427032	138.359070
50.436506	172.252655	127.792358
50.488934	153.751373	125.026703
50.541363	165.996552	129.623413
50.593792	174.884796	139.789581
50.646221	160.331726	143.566132
50.698650	165.767670	148.925781
50.751078	163.879395	142.993927
50.803507	158.863068	144.481659
50.855936	188.770294	142.631531
50.908365	160.846710	153.121948
50.960794	165.939331	140.075684
51.013222	196.819305	153.541565
51.065651	149.021149	130.710602
51.118080	193.233490	150.012970
51.170509	170.440674	158.958435
51.222938	166.797638	130.825043
51.275366	174.903870	150.241852
51.327795	162.563324	132.865906
51.380224	174.884796	143.108368
51.432653	143.890381	125.427246
51.485082	184.211731	140.762329
51.537510	174.579620	153.884888
51.589939	197.620392	154.762268
51.642368	170.516968	154.438019
51.694797	170.822144	127.944946
51.747226	181.427002	139.122009
51.799654	204.849243	145.130157
51.852083	180.988312	151.405334
51.904512	176.410675	146.408081
51.956941	176.792145	144.844055
52.009370	145.244598	130.195618
52.061798	172.538757	153.694153
52.114227	163.955688	134.086609
52.166656	191.993713	146.541595
52.219085	172.386169	151.557922
52.271514	181.636810	141.448975
52.323942	188.617706	160.102844
52.376371	181.522369	158.367157
52.428800	188.045502	148.200989
52.481229	199.127197	166.530609
52.533658	181.922913	148.220062
52.586086	180.606842	170.822144
52.638515	185.756683	154.323578
52.690944	188.846588	146.102905
52.743373	190.677643	174.407959
52.795802	199.966431	151.748657
52.848230	216.083527	174.942017
52.900659	175.914764	164.775848
52.953088	180.759430	162.658691
53.005517	207.366943	161.266327
53.057946	194.263458	159.301758
53.110374	190.963745	154.514313
53.162803	214.481354	161.609650
53.215232	192.108154	150.623322
53.267661	216.903687	167.484283
53.320090	212.192535	177.268982
53.372518	210.132599	172.462463
53.424947	188.541412	161.209106
53.477376	228.137970	172.462463
53.529805	176.162720	168.476105
53.582234	183.734894	152.053833
53.634662	206.165314	164.165497
53.687091	178.604126	178.813934
53.739520	176.258087	188.179016
53.791949	224.151611	165.767670
53.844378	209.770203	165.557861
53.896806	197.944641	181.560516
53.949235	203.380585	168.056488
54.001664	198.345184	171.604156
54.054093	212.039948	160.884857
54.106522	192.604065	167.789459
54.158950	230.503082	180.988312
54.211379	202.178955	163.288116
54.263808	178.833008	167.884827
54.316237	210.151672	176.410675
54.368666	185.432434	171.241760
54.421094	209.197998	178.813934
54.473523	204.181671	162.162781
54.525952	222.797394	188.789368
54.578381	204.563141	176.086426
54.630810	180.530548	171.871185
54.683238	199.298859	175.075531
54.735667	197.868347	173.816681
54.788096	202.465057	182.819366
54.840525	199.012756	158.939362
54.892954	227.699280	178.070068
54.945382	207.786560	188.598633
54.997811	200.862885	176.124573
55.050240	221.099854	189.228058
55.102669	211.544037	172.595978
55.155098	225.009918	196.704865
55.207526	200.634003	153.198242
55.259955	187.187195	174.255371
55.312384	204.677582	185.871124
55.364813	206.661224	152.778625
55.417242	212.306976	166.568756
55.469670	200.939178	169.715881
55.522099	217.647552	179.462433
55.574528	197.467804	180.416107
55.626957	197.410583	162.792206
55.679386	204.524994	159.816742
55.731814	219.516754	164.260864
55.784243	196.266174	157.928467
55.836672	221.557617	170.555115
55.889101	211.009979	156.536102
55.941530	191.154480	164.508820
55.993958	180.015564	167.217255
56.046387	191.135406	175.762177
56.098816	213.546753	167.217255
56.151245	207.233429	160.350800
56.203674	197.715759	164.813995
56.256102	197.467804	173.530579
56.308531	191.535950	155.982971
56.360960	180.587769	165.576935
56.413389	227.279663	191.535950
56.465818	210.380554	182.781219
56.518246	189.704895	168.209076
56.570675	205.802917	181.827545
56.623104	206.718445	173.244476
56.675533	215.492249	165.481567
56.727962	203.380585	160.312653
56.780390	237.522125	179.977417
56.832819	215.644836	184.898376
56.885248	206.565857	169.391632
56.937677	212.345123	193.214417
56.990106	198.154449	164.375305
57.042534	203.056335	173.530579
57.094963	183.734894	164.794922
57.147392	199.050903	169.143677
57.199821	203.323364	154.190063
57.252250	173.835754	181.312561
57.304678	209.732056	165.309906
57.357107	195.350647	175.209045
57.409536	208.892822	160.541534
57.461965	204.772949	171.833038
57.514394	203.342438	175.933838
57.566822	190.773010	170.688629
57.619251	194.549561	176.067352
57.671680	198.726654	152.263641
57.724109	203.628540	158.195496
57.776538	198.879242	178.470612
57.828966	221.004486	171.413422
57.881395	188.198090	161.838531
57.933824	181.980133	183.429718
57.986253	222.988129	180.492401
58.038682	200.862885	165.481567
58.091110	242.767334	168.151855
58.143539	226.516724	165.634155
58.195968	186.500549	160.484314
58.248397	215.377808	197.811127
58.300826	237.541199	185.165405
58.353254	225.181580	181.522369
58.405683	207.214355	179.805756
58.458112	196.838379	171.585083
58.510541	218.219757	180.854797
58.562970	186.595917	164.413452
58.615398	193.729401	150.642395
58.667827	173.912048	157.623291
58.720256	225.276947	186.252594
58.772685	198.879242	186.977386
58.825114	212.211609	175.323486
58.877542	203.800201	159.645081
58.929971	201.797485	175.418854
58.982400	208.015442	168.285370
59.034829	199.432373	174.999237
59.087258	198.478699	182.914734
59.139686	216.293335	162.239075
59.192115	212.802887	177.268982
59.244544	191.783905	159.626007
59.296973	198.383331	155.639648
59.349402	199.832916	151.405334
59.401830	210.342407	177.021027
59.454259	200.328827	188.407898
59.506688	213.546753	182.170868
59.559117	211.524963	165.348053
59.611546	195.941925	177.917480
59.663974	198.631287	169.868469
59.716403	197.010040	179.347992
59.768832	205.345154	169.219971
59.821261	195.808411	177.879333
59.873690	195.732117	178.203583
59.926118	205.688477	171.394348
59.978547	190.944672	163.364410
60.030976	201.492310	173.511505
60.083405	202.941895	163.135529
60.135834	222.167969	169.086456
60.188262	172.595978	171.260834
60.240691	212.974548	176.124573
60.293120	222.873688	189.208984
60.345549	218.715668	187.168121
60.397978	219.554901	168.914795
60.450406	201.911926	166.511536
60.502835	216.312408	160.903931
60.555264	207.195282	158.996582
60.607693	191.802979	163.059235
60.660122	196.094513	170.917511
60.712550	209.522247	169.067383
60.764979	215.358734	159.664154
60.817408	192.127228	165.901184
60.869837	214.042664	168.819427
60.922266	230.216980	178.833008
60.974694	197.162628	162.944794
61.027123	226.154327	166.110992
61.079552	224.914551	195.503235
61.131981	196.723938	167.617798
61.184410	196.800232	175.380707
61.236838	184.783936	160.102844
61.289267	200.595856	154.743195
61.341696	226.860046	190.868378
61.394125	177.879333	154.075623
61.446554	207.901001	198.459625
61.498982	215.778351	173.683167
61.551411	203.742981	170.097351
61.603840	200.519562	163.135529
61.656269	201.435089	174.198151
61.708698	209.808350	162.639618
61.761126	182.514191	165.443420
61.813555	208.740234	163.173676
61.865984	222.034454	171.146393
61.918413	193.214417	179.405212
61.970842	210.628510	177.707672
62.023270	207.538605	163.631439
62.075699	206.127167	178.680420
62.128128	191.020966	163.211823
62.180557	183.296204	158.843994
62.232986	202.484131	162.391663
62.285414	189.208984	150.585175
62.337843	197.944641	162.601471
62.390272	219.020844	182.132721
62.442701	216.846466	184.764862
62.495130	203.857422	179.710388
62.547558	207.138062	166.435242
62.599987	193.653107	156.345367
62.652416	203.609467	192.508698
62.704845	197.010040	177.917480
62.757274	212.631226	173.053741
62.809702	217.761993	157.203674
62.862131	202.770233	161.266327
62.914560	181.350708	168.361664
62.966989	195.121765	153.121948
63.019418	210.227966	166.816711
63.071846	192.546844	156.078339
63.124275	221.118927	170.269012
63.176704	219.783783	179.786682
63.229133	186.443329	164.642334
63.281562	201.034546	178.108215
63.333990	192.203522	168.666840
63.386419	198.822021	178.489685
63.438848	203.895569	166.549683
63.491277	201.396942	167.579651
63.543706	194.797516	164.070129
63.596134	227.699280	181.083679
63.648563	193.939209	170.440674
63.700992	204.524994	169.734955
63.753421	204.811096	184.249878
63.805850	203.819275	170.116425
63.858278	218.563080	185.127258
63.910707	178.623199	163.669586
63.963136	209.941864	173.625946
64.015565	204.181671	168.113708
64.067994	203.666687	184.535980
64.120422	202.522278	164.108276
64.172851	208.930969	165.119171
64.225280	213.108063	189.113617
64.277709	203.380585	157.890320
64.330138	196.762085	173.892975
64.382566	183.391571	174.427032
64.434995	185.680389	154.457092
64.487424	205.211639	176.811218
64.539853	214.176178	193.691254
64.592282	212.383270	172.348022
64.644710	197.143555	184.040070
64.697139	188.846588	174.465179
64.749568	198.097229	172.996521
64.801997	210.742950	192.699432
64.854426	199.966431	168.342590
64.906854	221.958160	157.966614
64.959283	202.426910	170.001984
65.011712	217.819214	185.565948
65.064141	210.189819	176.563263
65.116570	184.345245	173.377991
65.168998	209.732056	171.070099
65.221427	201.988220	167.331696
65.273856	197.010040	195.026398
65.326285	216.464996	156.841278
65.378714	232.658386	180.702209
65.431142	194.053650	176.200867
65.483571	205.116272	153.923035
65.536000	207.939148	180.053711
65.588429	182.666779	158.748627
65.640858	202.293396	167.961121
65.693286	207.061768	169.792175
65.745715	230.903625	175.609589
65.798144	226.345062	164.470673
65.850573	198.726654	154.590607
65.903002	212.001801	180.892944
65.955430	186.824799	165.977478
66.007859	224.132538	195.693970
66.060288	188.274384	166.454315
66.112717	192.050934	181.694031
66.165146	182.285309	154.647827
66.217574	197.696686	165.290833
66.270003	188.083649	170.307159
66.322432	199.451447	161.647797
66.374861	194.759369	181.198120
66.427290	234.661102	184.364319
66.479718	224.418640	197.601318
66.532147	190.372467	164.718628
66.584576	195.732117	180.606842
66.637005	191.726685	181.350708
66.689434	217.342377	180.473328
66.741862	200.748444	178.985596
66.794291	206.203461	161.190033
66.846720	204.524994	175.781250
66.899149	188.999176	149.021149
66.951578	197.048187	173.854828
67.004006	211.277008	151.100159
67.056435	203.666687	159.015656
67.108864	223.655701	179.576874
67.161293	202.980042	173.206329
67.213722	199.165344	184.040070
67.266150	193.347931	173.721313
67.318579	218.048096	183.525085
67.371008	185.165405	169.391632
67.423437	193.595886	170.822144
67.475866	203.113556	170.574188
67.528294	202.770233	173.778534
67.580723	225.925446	200.290680
67.633152	211.277008	162.200928
67.685581	198.516846	163.192749
67.738010	194.587708	171.241760
67.790438	224.666595	160.026550
67.842867	192.413330	171.356201
67.895296	174.388885	178.298950
67.947725	195.980072	161.247253
68.000154	201.663971	178.756714
68.052582	194.969177	177.669525
68.105011	187.606812	171.947479
68.157440	186.576843	186.233521
68.209869	222.797394	156.478882
68.262298	219.974518	176.486969
68.314726	198.516846	186.481476
68.367155	205.020905	168.590546
68.419584	185.756683	162.506104
68.472013	189.495087	159.778595
68.524442	220.603943	165.328979
68.576870	189.495087	160.636902
68.629299	173.778534	171.928406
68.681728	186.328888	165.424347
68.734157	182.571411	165.615082
68.786586	178.642273	172.977448
68.839014	203.304291	157.012939
68.891443	223.484039	174.732208
68.943872	198.745728	176.353455
68.996301	201.663971	156.326294
69.048730	197.391510	160.827637
69.101158	223.903656	160.884857
69.153587	210.437775	181.102753
69.206016	205.707550	154.018402
69.258445	223.999023	177.421570
69.310874	227.584839	173.072815
69.363302	193.138123	136.451721
69.415731	185.527802	170.135498
69.468160	205.440521	160.198212
69.520589	224.227905	176.239014
69.573018	191.497803	157.260895
69.625446	213.966370	154.876709
69.677875	201.873779	189.037323
69.730304	206.356049	186.595917
69.782733	189.952850	166.015625
69.835162	200.462341	173.339844
69.887590	181.961060	156.307220
69.940019	194.129944	155.868530
69.992448	199.584961	161.437988
70.044877	218.276978	162.715912
70.097306	213.298798	166.683197
70.149734	221.920013	164.489746
70.202163	206.623077	183.734894
70.254592	204.505920	181.064606
70.307021	183.010101	161.628723
70.359450	203.342438	163.879395
70.411878	208.988190	175.647736
70.464307	232.486725	175.399780
70.516736	226.097107	179.786682
70.569165	224.208832	166.263580
70.621594	190.105438	158.119202
70.674022	180.339813	163.593292
70.726451	199.050903	184.001923
70.778880	180.110931	165.958405
70.831309	190.792084	173.606873
70.883738	205.821991	180.187225
70.936166	191.173553	163.555145
70.988595	210.437775	189.285278
71.041024	198.211670	175.647736
71.093453	193.767548	160.636902
71.145882	195.541382	149.860382
71.198310	185.832977	160.865784
71.250739	218.658447	184.097290
71.303168	212.974548	146.484375
71.355597	171.470642	159.587860
71.408026	210.361481	190.906525
71.460454	218.105316	159.397125
71.512883	194.263458	163.497925
71.565312	199.794769	196.018219
71.617741	210.533142	192.794800
71.670170	219.268799	178.508759
71.722598	208.377838	165.119171
71.775027	199.146271	175.151825
71.827456	192.832947	164.184570
71.879885	203.781128	161.075592
71.932314	206.546783	159.511566
71.984742	210.304260	157.604218
72.037171	175.514221	165.939331
72.089600	206.890106	172.977448
72.142029	202.159882	149.288177
72.194458	211.467743	159.530640
72.246886	180.473328	161.590576
72.299315	227.088928	167.083740
72.351744	203.342438	177.383423
72.404173	192.623138	171.813965
72.456602	201.587677	178.871155
72.509030	198.020935	177.555084
72.561459	203.838348	179.176331
72.613888	204.334259	172.996521
72.666317	219.192505	181.198120
72.718746	195.693970	161.209106
72.771174	199.127197	181.369781
72.823603	196.456909	157.794952
72.876032	191.440582	174.369812
72.928461	209.884644	161.457062
72.980890	204.391479	162.925720
73.033318	198.574066	176.372528
73.085747	190.258026	163.440704
73.138176	202.560425	170.345306
73.190605	180.931091	155.792236
73.243034	190.868378	160.045624
73.295462	192.413330	161.418915
73.347891	224.914551	169.429779
73.400320	216.941833	185.012817
73.452749	190.410614	148.677826
73.505178	191.993713	167.636871
73.557606	213.127136	162.029266
73.610035	204.792023	169.124603
73.662464	198.631287	176.773071
73.714893	199.260712	166.835785
73.767322	191.516876	168.380737
73.819750	185.241699	147.418976
73.872179	194.721222	170.745850
73.924608	204.544067	168.476105
73.977037	224.933624	177.593231
74.029466	204.124451	172.367096
74.081894	190.811157	169.715881
74.134323	200.767517	178.432465
74.186752	202.636719	172.500610
74.239181	213.031769	169.773102
74.291610	191.650391	162.429810
74.344038	184.650421	164.852142
74.396467	197.772980	176.658630
74.448896	222.892761	181.884766
74.501325	196.151733	193.920135
74.553754	178.718567	170.459747
74.606182	196.666718	167.217255
74.658611	200.634003	163.230896
74.711040	212.001801	172.328949
74.763469	215.549469	177.974701
74.815898	187.664032	149.078369
74.868326	210.838318	157.661438
74.920755	207.386017	170.230865
74.973184	190.258026	170.764923
75.025613	196.208954	168.113708
75.078042	226.402283	190.162659
75.130470	196.685791	172.252655
75.182899	214.633942	193.500519
75.235328	231.342316	184.402466
75.287757	204.963684	175.876617
75.340186	220.928192	163.288116
75.392614	193.061829	171.356201
75.445043	187.282562	159.816742
75.497472	210.514069	162.792206
75.549901	192.661285	168.895721
75.602330	198.440552	188.732147
75.654758	186.443329	157.432556
75.707187	188.083649	166.645050
75.759616	180.282593	159.530640
75.812045	219.287872	178.070068
75.864474	217.475891	172.863007
75.916902	190.544128	163.784027
75.969331	211.429596	169.963837
76.021760	209.465027	174.655914
76.074189	197.677612	160.732269
76.126618	200.252533	165.996552
76.179046	193.061829	174.369812
76.231475	195.293427	166.358948
76.283904	196.666718	156.097412
76.336333	179.443359	176.334381
76.388762	192.222595	163.555145
76.441190	194.759369	170.269012
76.493619	199.031830	157.947540
76.546048	194.683075	190.258026
76.598477	175.647736	177.536011
76.650906	204.010010	171.966553
76.703334	191.688538	168.762207
76.755763	180.168152	161.972046
76.808192	214.157104	163.974762
76.860621	194.759369	173.225403
76.913050	192.184448	152.053833
76.965478	186.462402	173.873901
77.017907	203.170776	172.290802
77.070336	191.440582	166.492462
77.122765	196.056366	155.487061
77.175194	187.282562	161.972046
77.227622	163.459778	169.067383
77.280051	189.418793	171.394348
77.332480	224.514008	155.296326
77.384909	189.037323	168.437958
77.437338	201.015472	161.018372
77.489766	208.530426	173.435211
77.542195	176.925659	155.944824
77.594624	197.067261	173.034668
77.647053	206.012726	152.988434
77.699482	209.751129	177.402496
77.751910	214.462280	168.342590
77.804339	197.105408	165.424347
77.856768	197.391510	149.574280
77.909197	200.462341	175.418854
77.961626	192.222595	182.971954
78.014054	200.042725	186.309814
78.066483	204.200745	177.459717
78.118912	184.516907	150.089264
78.171341	190.544128	164.699554
78.223770	213.661194	148.735046
78.276198	220.012665	161.437988
78.328627	202.045441	156.974792
78.381056	221.195221	169.849396
78.433485	238.075256	187.244415
78.485914	250.282288	181.751251
78.538342	192.203522	169.696808
78.590771	199.756622	171.184540
78.643200	184.040070	175.399780
78.695629	205.726624	179.233551
78.748058	204.257965	171.852112
78.800486	192.661285	161.190033
78.852915	219.478607	175.151825
78.905344	204.944611	184.249878
78.957773	198.345184	178.318024
79.010202	221.500397	184.841156
79.062630	197.448730	167.961121
79.115059	173.816681	168.170929
79.167488	185.832977	178.527832
79.219917	203.170776	159.530640
79.272346	204.296112	174.312592
79.324774	229.301453	168.972015
79.377203	187.969208	153.446198
79.429632	193.767548	170.841217
79.482061	227.928162	168.685913
79.534490	218.830109	163.421631
79.586918	207.118988	169.601440
79.639347	190.296173	159.034729
79.691776	208.625793	186.405182
79.744205	213.413239	173.454285
79.796634	192.661285	151.634216
79.849062	181.961060	169.162750
79.901491	218.677521	183.773041
79.953920	207.233429	181.465149
80.006349	194.454193	140.037537
80.058778	189.437866	171.394348
80.111206	194.587708	185.260773
80.163635	206.718445	174.255371
80.216064	199.966431	164.299011
80.268493	210.151672	172.100067
80.320922	221.805573	179.843903
80.373350	210.094452	167.713165
80.425779	199.069977	154.609680
80.478208	203.304291	179.061890
80.530637	240.230560	167.522430
80.583066	221.023560	161.991119
80.635494	176.486969	158.100128
80.687923	230.197906	186.405182
80.740352	203.876495	170.993805
80.792781	227.012634	167.999268
80.845210	192.012787	149.364471
80.897638	207.595825	167.865753
80.950067	192.050934	157.527924
81.002496	202.007294	160.694122
81.054925	228.195190	192.413330
81.107354	186.309814	158.290863
81.159782	198.078156	169.429779
81.212211	207.386017	161.571503
81.264640	232.906342	166.969299
81.317069	208.454132	146.465302
81.369498	211.658478	176.563263
81.421926	201.759338	173.168182
81.474355	206.184387	179.119110
81.526784	221.881866	174.274445
81.579213	186.481476	160.655975
81.631642	195.503235	148.162842
81.684070	208.778381	184.936523
81.736499	199.089050	177.574158
81.788928	199.451447	172.729492
81.841357	239.448547	177.268982
81.893786	198.268890	168.800354
81.946214	201.339722	179.195404
81.998643	176.658630	149.822235
82.051072	185.031891	160.770416
82.103501	183.506012	158.405304
82.155930	190.944672	181.369781
82.208358	203.742981	171.260834
82.260787	213.947296	188.903809
82.313216	220.355988	178.623199
82.365645	203.876495	190.906525
82.418074	188.179016	156.116486
82.470502	203.399658	168.590546
82.522931	225.811005	177.822113
82.575360	227.108002	168.857574
82.627789	211.277008	169.429779
82.680218	212.612152	188.465118
82.732646	187.015533	163.917542
82.785075	176.296234	163.955688
82.837504	196.208954	179.004669
82.889933	213.546753	160.923004
82.942362	205.020905	156.250000
82.994790	215.148926	163.440704
83.047219	230.731964	187.110901
83.099648	210.247040	158.786774
83.152077	180.473328	173.606873
83.204506	184.288025	155.277252
83.256934	204.257965	178.050995
83.309363	206.661224	161.590576
83.361792	235.195160	178.413391
83.414221	205.764771	156.440735
83.466650	194.530487	167.388916
83.519078	203.113556	174.255371
83.571507	195.598602	169.277191
83.623936	202.579498	179.386139
83.676365	218.620300	176.010132
83.728794	201.950073	178.451538
83.781222	207.729340	178.184509
83.833651	215.892792	194.492340
83.886080	207.290649	166.378021
83.938509	207.138062	181.388855
83.990938	210.952759	153.007507
84.043366	199.871063	167.579651
84.095795	195.751190	167.179108
84.148224	210.132599	164.299011
84.200653	193.443298	160.140991
84.253082	185.470581	159.301758
84.305510	204.639435	154.476166
84.357939	203.895569	154.552460
84.410368	223.178864	164.546967
84.462797	190.677643	154.991150
84.515226	208.568573	171.070099
84.567654	203.266144	156.173706
84.620083	190.372467	163.440704
84.672512	189.552307	161.609650
84.724941	177.497864	177.211761
84.777370	186.519623	164.527893
84.829798	196.247101	150.356293
84.882227	180.187225	153.789520
84.934656	204.772949	168.838501
84.987085	210.475922	169.677734
85.039514	213.680267	164.318085
85.091942	214.290619	169.429779
85.144371	207.290649	161.037445
85.196800	229.110718	166.244507
85.249229	232.734680	177.536011
85.301658	196.819305	171.813965
85.354086	186.386108	166.244507
85.406515	187.530518	168.476105
85.458944	211.544037	162.010193
85.511373	221.309662	189.704895
85.563802	201.110840	157.241821
85.616230	207.901001	161.476135
85.668659	211.334229	189.170837
85.721088	229.911804	183.849335
85.773517	183.048248	160.655975
85.825946	167.217255	172.500610
85.878374	188.789368	163.936615
85.930803	192.623138	153.789520
85.983232	220.756531	195.083618
86.035661	196.189880	151.062012
86.088090	184.230804	163.497925
86.140518	188.827515	168.781281
86.192947	204.696655	168.876648
86.245376	201.835632	171.184540
86.297805	206.661224	177.459717
86.350234	208.473206	157.489777
86.402662	185.565948	156.040192
86.455091	209.121704	165.081024
86.507520	205.593109	165.462494
86.559949	209.846497	166.130066
86.612378	181.350708	168.724060
86.664806	224.227905	193.862915
86.717235	194.282532	153.312683
86.769664	207.901001	150.756836
86.822093	205.307007	162.372589
86.874522	193.653107	170.421600
86.926950	233.554840	176.773071
86.979379	207.767487	184.230804
87.031808	192.089081	150.737762
87.084237	216.255188	167.579651
87.136666	209.255219	167.751312
87.189094	207.939148	169.048309
87.241523	190.353394	190.315247
87.293952	233.821869	183.372498
87.346381	189.704895	160.884857
87.398810	206.737518	167.198181
87.451238	214.748383	166.378021
87.503667	199.317932	164.089203
87.556096	207.138062	170.230865
87.608525	182.609558	163.421631
87.660954	208.358765	151.500702
87.713382	200.080872	180.912018
87.765811	178.546906	156.574249
87.818240	195.655823	183.200836
87.870669	212.955475	167.884827
87.923098	213.108063	165.290833
87.975526	181.331635	154.438019
88.027955	196.037292	170.269012
88.080384	207.767487	160.636902
88.132813	196.781158	161.647797
88.185242	198.669434	168.838501
88.237670	211.696625	157.833099
88.290099	192.852020	166.950226
88.342528	207.481384	187.816620
88.394957	201.282501	187.892914
88.447386	211.105347	171.298981
88.499814	197.296143	186.004639
88.552243	192.050934	168.285370
88.604672	201.454163	171.203613
88.657101	187.892914	172.386169
88.709530	187.320709	158.214569
88.761958	195.541382	165.996552
88.814387	194.892883	184.173584
88.866816	215.244293	150.032043
88.919245	197.792053	167.884827
88.971674	212.440491	177.059174
89.024102	207.462311	173.625946
89.076531	221.576691	190.792084
89.128960	182.247162	142.440796
89.181389	201.206207	163.860321
89.233818	167.598724	168.209076
89.286246	183.639526	161.800385
89.338675	195.560455	149.803162
89.391104	209.369659	156.326294
89.443533	223.407745	155.258179
89.495962	186.882019	166.568756
89.548390	216.217041	170.993805
89.600819	228.862762	169.181824
89.653248	217.113495	160.179138
89.705677	209.541321	163.650513
89.758106	234.909058	173.015594
89.810534	211.219788	156.364441
89.862963	195.045471	173.854828
89.915392	211.067200	172.672272
89.967821	198.268890	161.952972
90.020250	196.037292	161.991119
90.072678	193.767548	166.320801
90.125107	206.604004	186.119080
90.177536	212.917328	164.527893
90.229965	193.843842	156.917572
90.282394	215.587616	178.375244
90.334822	203.838348	187.873840
90.387251	229.225159	163.898468
90.439680	199.184418	164.031982
90.492109	179.462433	150.527954
90.544538	181.865692	158.710480
90.596966	177.860260	167.198181
90.649395	244.407654	166.339874
90.701824	188.140869	172.443390
90.754253	184.783936	151.901245
90.806682	203.037262	179.653168
90.859110	206.413269	181.198120
90.911539	220.527649	181.350708
90.963968	216.922760	182.304382
91.016397	205.631256	175.132751
91.068826	198.421478	176.143646
91.121254	202.579498	181.140900
91.173683	205.574036	156.307220
91.226112	198.764801	172.386169
91.278541	191.669464	164.527893
91.330970	182.819366	157.852173
91.383398	176.696777	154.361725
91.435827	186.271667	155.200958
91.488256	208.683014	168.552399
91.540685	214.366913	183.086395
91.593114	196.151733	173.072815
91.645542	206.966400	168.190002
91.697971	181.484222	174.083710
91.750400	192.394257	158.596039
91.802829	206.260681	172.977448
91.855258	208.835602	154.933929
91.907686	205.135345	166.225433
91.960115	237.350464	174.217224
92.012544	199.413300	172.176361
92.064973	177.230835	154.781342
92.117402	211.868286	172.023773
92.169830	203.819275	168.094635
92.222259	230.827332	188.732147
92.274688	203.437805	173.721313
92.327117	193.595886	168.399811
92.379546	193.347931	162.792206
92.431974	192.012787	179.233551
92.484403	193.595886	141.086578
92.536832	203.628540	164.222717
92.589261	170.860291	145.359039
92.641690	196.666718	173.187256
92.694118	194.206238	159.435272
92.746547	223.045349	185.623169
92.798976	219.974518	172.519684
92.851405	207.252502	153.331757
92.903834	186.996460	159.015656
92.956262	209.369659	160.770416
93.008691	209.121704	157.318115
93.061120	224.342346	162.982941
93.113549	190.601349	150.966644
93.165978	210.838318	168.895721
93.218406	199.012756	157.451630
93.270835	190.258026	160.980225
93.323264	184.001923	162.982941
93.375693	186.614990	159.702301
93.428122	204.296112	173.416138
93.480550	191.059113	162.296295
93.532979	185.890198	157.604218
93.585408	225.200653	178.127289
93.637837	199.756622	164.108276
93.690266	188.388824	155.925751
93.742694	177.593231	158.843994
93.795123	205.249786	174.026489
93.847552	223.941803	184.345245
93.899981	181.388855	158.138275
93.952410	192.165375	166.721344
94.004838	198.707581	171.203613
94.057267	165.271759	160.675049
94.109696	211.582184	189.056396
94.162125	207.157135	172.863007
94.214554	192.127228	161.514282
94.266982	196.876526	156.574249
94.319411	203.647614	164.680481
94.371840	212.688446	163.211823
94.424269	185.642242	171.241760
94.476698	185.470581	163.555145
94.529126	217.628479	194.721222
94.581555	181.903839	151.138306
94.633984	197.868347	166.988373
94.686413	185.146332	166.625977
94.738842	199.947357	170.936584
94.791270	181.579590	154.533386
94.843699	212.821960	174.140930
94.896128	217.533112	200.176239
94.948557	191.192627	164.947510
95.000986	184.078217	185.642242
95.053414	197.639465	163.497925
95.105843	203.781128	169.792175
95.158272	205.669403	180.130005
95.210701	208.892822	168.800354
95.263130	227.661133	172.023773
95.315558	196.704865	171.127319
95.367987	201.225281	163.497925
95.420416	197.353363	171.508789
95.472845	178.565979	151.462555
95.525274	197.372437	158.519745
95.577702	185.279846	147.609711
95.630131	201.568604	185.260773
95.682560	195.884705	167.369843
95.734989	246.696472	178.604126
95.787418	198.097229	178.794861
95.839846	198.402405	164.909363
95.892275	186.424255	156.745911
95.944704	189.208984	159.301758
95.997133	187.263489	152.091980
96.049562	195.789337	173.892975
96.101990	210.285187	173.358917
96.154419	182.399750	143.508911
96.206848	201.625824	160.217285
96.259277	194.416046	161.762238
96.311706	198.841095	168.895721
96.364134	219.097137	168.533325
96.416563	183.868408	164.794922
96.468992	201.702118	151.023865
96.521421	218.753815	166.053772
96.573850	226.974487	169.315338
96.626278	185.813904	170.307159
96.678707	210.094452	164.756775
96.731136	183.429718	166.072845
96.783565	206.508636	176.792145
96.835994	172.328949	146.446228
96.888422	222.187042	189.933777
96.940851	212.402344	161.666870
96.993280	206.985474	169.868469
97.045709	190.277100	164.070129
97.098138	217.876434	187.129974
97.150566	192.947388	160.980225
97.202995	190.200806	165.557861
97.255424	207.576752	161.418915
97.307853	213.603973	167.846680
97.360282	219.936371	187.511444
97.412710	206.947327	161.132812
97.465139	188.484192	163.650513
97.517568	205.955505	182.170868
97.569997	204.315186	157.146454
97.622426	219.593048	193.424225
97.674854	228.729248	167.694092
97.727283	205.402374	154.953003
97.779712	198.898315	170.574188
97.832141	211.200714	178.165436
97.884570	181.236267	159.511566
97.936998	188.255310	147.304535
97.989427	211.582184	160.827637
98.041856	177.459717	158.596039
98.094285	199.718475	161.304474
98.146714	213.356018	184.726715
98.199142	233.249664	172.977448
98.251571	204.505920	186.214447
98.304000	192.699432	143.413544
98.356429	220.680237	158.195496
98.408858	171.699524	151.309967
98.461286	214.557648	176.811218
98.513715	189.628601	152.797699
98.566144	216.083527	192.260742
98.618573	188.636780	170.097351
98.671002	205.574036	159.683228
98.723430	178.680420	155.391693
98.775859	171.909332	152.759552
98.828288	198.669434	173.397064
98.880717	213.336945	168.418884
98.933146	193.214417	175.724030
98.985574	181.312561	158.481598
99.038003	194.396973	169.639587
99.090432	171.699524	160.560608
99.142861	201.492310	177.936554
99.195290	200.119019	167.102814
99.247718	195.446014	175.991058
99.300147	190.811157	174.083710
99.352576	204.448700	165.195465
99.405005	194.854736	161.857605
99.457434	194.110870	154.705048
99.509862	198.631287	151.023865
99.562291	189.170837	176.067352
99.614720	175.399780	164.966583
99.667149	199.985504	161.342621
99.719578	190.238953	170.898437
99.772006	216.464996	178.909302
99.824435	186.214447	155.582428
99.876864	194.988251	171.146393
99.929293	198.020935	166.435242
99.981722	206.546783	173.187256
100.034150	185.775757	163.764954
100.086579	182.018280	172.996521
100.139008	191.040039	161.037445
100.191437	206.737518	168.762207
100.243866	178.356171	157.890320
100.296294	230.083466	181.083679
100.348723	203.685760	182.476044
100.401152	209.712982	183.677673
100.453581	209.789276	176.410675
100.506010	213.928223	168.094635
100.558438	192.413330	166.740417
100.610867	187.797546	161.895752
100.663296	200.996399	181.198120
100.715725	220.279694	190.601349
100.768154	214.691162	173.702240
100.820582	172.538757	168.857574
100.873011	184.688568	161.495209
100.925440	183.773041	156.898499
100.977869	220.870972	163.135529
101.030298	182.552338	147.914886
101.082726	180.873871	156.402588
101.135155	217.170715	190.525055
101.187584	187.797546	179.023743
101.240013	217.742920	168.361664
101.292442	189.495087	158.557892
101.344870	211.582184	157.184601
101.397299	208.034515	156.192780
101.449728	207.843781	163.497925
101.502157	209.693909	161.647797
101.554586	186.595917	163.555145
101.607014	201.797485	155.353546
101.659443	196.495056	176.773071
101.711872	196.857452	162.734985
101.764301	167.026520	152.797699
101.816730	187.435150	167.160034
101.869158	219.116211	181.636810
101.921587	228.004456	200.099945
101.974016	212.764740	180.988312
102.026445	180.187225	170.803070
102.078874	181.007385	181.198120
102.131302	189.342499	187.263489
102.183731	191.860199	144.081116
102.236160	205.345154	144.710541
102.288589	214.233398	166.397095
102.341018	191.364288	163.402557
102.393446	205.078125	169.715881
102.445875	185.394287	167.140961
102.498304	167.865753	152.759552
102.550733	210.208893	175.590515
102.603162	186.939240	174.007416
102.655590	198.192596	164.413452
102.708019	199.584961	173.110962
102.760448	197.048187	184.116364
102.812877	205.764771	174.560547
102.865306	181.827545	154.361725
102.917734	191.612244	161.800385
102.970163	206.890106	165.328979
103.022592	192.756653	162.544250
103.075021	201.187134	157.470703
103.127450	203.685760	173.816681
103.179878	205.287933	172.233582
103.232307	182.876587	161.037445
103.284736	220.432281	176.029205
103.337165	193.347931	155.773163
103.389594	192.680359	185.871124
103.442022	186.939240	152.301788
103.494451	190.448761	173.931122
103.546880	196.609497	162.658691
103.599309	191.764832	149.612427
103.651738	192.928314	149.040222
103.704166	180.816650	162.773132
103.756595	210.304260	160.522461
103.809024	191.669464	171.833038
103.861453	188.255310	159.664154
103.913882	210.227966	174.522400
103.966310	196.990967	161.209106
104.018739	170.097351	155.735016
104.071168	209.541321	172.576904
104.123597	205.917358	161.190033
104.176026	196.990967	178.337097
104.228454	199.642181	158.023834
104.280883	201.892853	166.053772
104.333312	191.879272	148.830414
104.385741	201.854706	165.042877
104.438170	178.089142	150.032043
104.490598	216.541290	192.184448
104.543027	195.865631	155.429840
104.595456	193.710327	168.342590
104.647885	195.293427	179.462433
104.700314	188.846588	166.358948
104.752742	204.162598	188.198090
104.805171	212.268829	175.189972
104.857600	185.737610	141.239166
104.910029	206.909180	156.631470
104.962458	176.410675	176.448822
105.014886	201.702118	166.282654
105.067315	192.565918	175.857544
105.119744	187.091827	152.988434
105.172173	213.565826	163.516998
105.224602	199.222565	169.258118
105.277030	186.767578	155.963898
105.329459	189.476013	163.192749
105.381888	197.162628	153.388977
105.434317	236.759186	205.707550
105.486746	200.366974	181.770325
105.539174	211.524963	188.980103
105.591603	192.012787	158.939362
105.644032	184.764862	183.486938
105.696461	177.803040	163.097382
105.748890	202.693939	170.898437
105.801318	195.655823	164.108276
105.853747	203.876495	163.784027
105.906176	195.522308	159.263611
105.958605	190.925598	157.375336
106.011034	186.805725	169.487000
106.063462	207.080841	192.966461
106.115891	202.693939	169.353485
106.168320	211.143494	160.045624
106.220749	195.350647	165.729523
106.273178	187.873840	156.116486
106.325606	196.495056	138.378143
106.378035	189.285278	168.514252
106.430464	208.187103	165.481567
106.482893	202.941895	156.345367
106.535322	191.688538	178.470612
106.587750	207.920074	166.149139
106.640179	168.418884	164.432526
106.692608	184.879303	158.176422
106.745037	210.361481	159.072876
106.797466	197.811127	165.710449
106.849894	187.263489	160.522461
106.902323	190.601349	185.832977
106.954752	230.655670	182.933807
107.007181	194.606781	173.454285
107.059610	210.762024	149.707794
107.112038	182.132721	167.179108
107.164467	198.192596	192.470551
107.216896	199.928284	159.664154
107.269325	201.625824	167.331696
107.321754	199.317932	164.413452
107.374182	207.633972	177.173615
107.426611	192.661285	145.587921
107.479040	218.162537	177.173615
107.531469	194.168091	143.928528
107.583898	192.394257	174.465179
107.636326	195.426941	168.819427
107.688755	206.832886	177.612305
107.741184	192.661285	154.914856
107.793613	202.541351	168.876648
107.846042	219.230652	165.462494
107.898470	185.050964	173.988342
107.950899	188.884735	162.906647
108.003328	174.636841	152.244568
108.055757	200.653076	150.051117
108.108186	201.530457	158.538818
108.160614	199.813843	161.838531
108.213043	187.301636	171.127319
108.265472	202.827454	175.952911
108.317901	196.571350	174.121857
108.370330	188.941956	182.933807
108.422758	190.143585	177.650452
108.475187	182.151794	158.805847
108.527616	190.944672	167.274475
108.580045	194.988251	167.808533
108.632474	182.418823	158.271790
108.684902	181.331635	157.737732
108.737331	210.494995	160.484314
108.789760	220.241547	179.367065
108.842189	212.440491	178.699493
108.894618	217.533112	174.160004
108.947046	197.353363	145.626068
108.999475	193.862915	174.369812
109.051904	201.778412	166.511536
109.104333	186.176300	154.304504
109.156762	198.078156	165.729523
109.209190	208.759308	167.903900
109.261619	204.734802	188.808441
109.314048	215.454102	159.301758
109.366477	189.514160	150.699615
109.418906	224.227905	173.835754
109.471334	206.832886	163.803101
109.523763	209.636688	173.320770
109.576192	194.587708	168.609619
109.628621	175.552368	156.860352
109.681050	189.609528	161.895752
109.733478	204.887390	155.220032
109.785907	197.277069	172.042847
109.838336	215.530396	158.729553
109.890765	182.857513	176.124573
109.943194	200.767517	149.497986
109.995622	189.990997	165.042877
110.048051	208.950043	171.928406
110.100480	207.347870	182.418823
110.152909	210.151672	178.604126
110.205338	202.980042	165.901184
110.257766	187.740326	161.972046
110.310195	212.612152	182.991028
110.362624	198.116302	166.759491
110.415053	198.478699	157.680511
110.467482	220.813751	172.080994
110.519910	208.015442	170.154572
110.572339	226.631165	163.993835
110.624768	195.636749	155.010223
110.677197	206.241608	165.729523
110.729626	195.465088	185.985565
110.782054	186.252594	156.078339
110.834483	215.930939	160.160065
110.886912	206.832886	171.070099
110.939341	208.606720	158.004761
110.991770	227.603912	176.448822
111.044198	195.884705	175.113678
111.096627	200.805664	173.549652
111.149056	186.100006	141.849518
111.201485	190.525055	144.348145
111.253914	197.544098	145.130157
111.306342	198.459625	176.544189
111.358771	189.533234	138.511658
111.411200	219.268799	171.947479
111.463629	210.189819	170.059204
111.516058	171.394348	162.315369
111.568486	188.789368	159.530640
111.620915	206.165314	162.467957
111.673344	192.737579	165.061951
111.725773	194.072723	165.328979
111.778202	204.563141	176.696777
111.830630	228.233337	174.942017
111.883059	217.056274	175.628662
111.935488	195.922852	182.151794
111.987917	210.151672	162.696838
112.040346	204.277039	170.421600
112.092774	178.833008	166.206360
112.145203	219.211578	179.882050
112.197632	218.086243	150.260925
112.250061	202.732086	196.380615
112.302490	226.726532	164.985657
112.354918	200.290680	163.211823
112.407347	206.527710	171.260834
112.459776	194.549561	160.045624
112.512205	191.192627	151.119232
112.564634	210.800171	159.378052
112.617062	184.879303	158.329010
112.669491	219.211578	169.448853
112.721920	208.396912	155.696869
112.774349	199.546814	164.489746
112.826778	224.170685	176.582336
112.879206	202.903748	160.388947
112.931635	192.222595	191.459656
112.984064	184.211731	156.097412
113.036493	222.759247	170.383453
113.088922	194.110870	159.549713
113.141350	202.312469	156.574249
113.193779	174.598694	150.699615
113.246208	181.884766	152.549744
113.298637	197.200775	167.827606
113.351066	193.538666	167.942047
113.403494	185.089111	159.454346
113.455923	204.200745	176.982880
113.508352	207.481384	147.628784
113.560781	231.819153	161.685944
113.613210	211.162567	155.067444
113.665638	192.451477	168.647766
113.718067	214.824677	152.721405
113.770496	215.625763	159.988403
113.822925	195.140839	189.304352
113.875354	197.715759	176.887512
113.927782	210.304260	177.650452
113.980211	201.663971	152.969360
114.032640	191.116333	179.252625
114.085069	199.851990	169.105530
114.137498	221.290588	177.536011
114.189926	193.290710	156.154633
114.242355	225.963593	155.315399
114.294784	219.707489	168.037415
114.347213	198.822021	169.067383
114.399642	197.944641	161.228180
114.452070	188.484192	171.432495
114.504499	192.813873	178.203583
114.556928	195.236206	153.827667
114.609357	190.219879	153.617859
114.661786	199.241638	144.271851
114.714214	211.849213	166.625977
114.766643	203.151703	166.187286
114.819072	196.228027	177.440643
114.871501	230.064392	150.070190
114.923930	206.050873	180.568695
114.976358	216.331482	174.827576
115.028787	222.530365	183.906555
115.081216	199.432373	161.399841
115.133645	202.674866	182.056427
115.186074	209.579468	181.732178
115.238502	216.407776	185.718536
115.290931	193.500519	179.481506
115.343360	210.304260	181.846619
115.395789	189.723969	144.596100
115.448218	223.064423	177.803040
115.500646	176.506042	171.356201
115.553075	192.298889	157.527924
115.605504	184.059143	170.021057
115.657933	220.432281	190.467834
115.710362	204.925537	168.514252
115.762790	208.759308	177.955627
115.815219	197.658539	163.269043
115.867648	197.753906	162.162781
115.920077	186.614990	158.729553
115.972506	203.437805	166.950226
116.024934	194.759369	157.394409
116.077363	201.129913	170.440674
116.129792	191.135406	195.808411
116.182221	199.165344	155.124664
116.234650	187.778473	156.707764
116.287078	203.247070	161.342621
116.339507	205.821991	176.200867
116.391936	189.876556	144.577026
116.444365	187.053680	149.230957
116.496794	205.478668	180.263519
116.549222	208.148956	177.612305
116.601651	201.931000	147.743225
116.654080	184.974670	184.764862
116.706509	220.375061	158.405304
116.758938	191.097260	169.906616
116.811366	216.083527	169.963837
116.863795	192.012787	144.367218
116.916224	205.268860	160.446167
116.968653	196.628571	164.051056
117.021082	221.290588	166.702271
117.073510	199.031830	153.312683
117.125939	199.661255	170.383453
117.178368	207.958221	172.519684
117.230797	173.854828	158.977509
117.283226	195.331573	168.781281
117.335654	197.601318	154.533386
117.388083	189.056396	172.863007
117.440512	201.873779	158.653259
117.492941	205.955505	167.636871
117.545370	221.786499	176.601410
117.597798	202.102661	162.925720
117.650227	198.402405	160.331726
117.702656	191.593170	177.402496
117.755085	190.925598	157.108307
117.807514	202.217102	162.754059
117.859942	197.296143	169.258118
117.912371	209.445953	177.326202
117.964800	185.203552	155.715942
118.017229	199.699402	184.173584
118.069658	189.304352	155.925751
118.122086	178.451538	150.184631
118.174515	197.677612	189.018250
118.226944	199.012756	169.582367
118.279373	192.661285	153.903961
118.331802	185.623169	156.497955
118.384230	196.323395	187.397003
118.436659	203.533173	170.917511
118.489088	228.500366	171.623230
118.541517	214.595795	182.971954
118.593946	202.808380	155.811310
118.646374	195.674896	172.424316
118.698803	188.064575	170.345306
118.751232	208.244324	165.920258
118.803661	196.952820	178.165436
118.856090	207.424164	177.078247
118.908518	196.266174	155.010223
118.960947	187.015533	170.631409
119.013376	221.843719	199.222565
119.065805	208.244324	157.070160
119.118234	211.505890	165.863037
119.170662	193.672180	149.593353
119.223091	220.642090	156.650543
119.275520	210.323334	173.320770
119.327949	185.852051	151.786804
119.380378	215.396881	180.377960
119.432806	210.895538	193.424225
119.485235	200.405121	181.045532
119.537664	172.100067	159.416199
119.590093	219.726562	158.710480
119.642522	203.914642	160.541534
119.694950	198.993683	162.487030
119.747379	179.576874	169.696808
119.799808	187.263489	161.952972
119.852237	193.061829	147.228241
119.904666	191.268921	174.312592
119.957094	196.189880	167.026520
120.009523	199.165344	151.824951
120.061952	200.347900	167.255402
120.114381	214.729309	193.538666
120.166810	209.121704	166.759491
120.219238	183.486938	181.617737
120.271667	217.742920	168.037415
120.324096	237.007141	165.462494
120.376525	203.132629	165.767670
120.428954	198.593140	157.718658
120.481382	197.238922	154.838562
120.533811	230.216980	171.623230
120.586240	199.146271	166.378021
120.638669	180.282593	174.217224
120.691098	216.541290	166.778564
120.743526	203.742981	169.353485
120.795955	203.266144	168.514252
120.848384	198.287964	167.446136
120.900813	198.459625	180.130005
120.953242	183.620453	154.170990
121.005670	183.963776	149.478912
121.058099	190.868378	154.514313
121.110528	200.347900	189.075470
121.162957	216.236115	156.784058
121.215386	200.157166	170.841217
121.267814	198.421478	164.470673
121.320243	213.317871	166.378021
121.372672	203.628540	183.658600
121.425101	204.048157	162.353516
121.477530	195.941925	162.982941
121.529958	212.097168	165.843964
121.582387	225.639343	172.996521
121.634816	203.952789	174.732208
121.687245	204.982758	150.108337
121.739674	192.279816	158.958435
121.792102	205.898285	146.121979
121.844531	194.416046	165.100098
121.896960	213.203430	162.029266
121.949389	214.538574	169.429779
122.001818	187.969208	152.950287
122.054246	203.666687	174.388885
122.106675	209.751129	171.737671
122.159104	180.816650	160.923004
122.211533	220.794678	160.274506
122.263962	202.274323	165.157318
122.316390	185.031891	169.086456
122.368819	199.604034	173.835754
122.421248	209.636688	174.522400
122.473677	193.462372	156.364441
122.526106	203.723907	172.672272
122.578534	185.813904	163.860321
122.630963	184.669495	158.233643
122.683392	213.985443	187.816620
122.735821	225.811005	168.743134
122.788250	202.159882	181.713104
122.840678	199.546814	164.451599
122.893107	203.895569	165.138245
122.945536	187.282562	159.778595
122.997965	190.048218	168.952942
123.050394	198.421478	165.920258
123.102822	214.481354	180.416107
123.155251	218.143463	175.609589
123.207680	202.178955	166.721344
123.260109	195.922852	166.206360
123.312538	229.625702	190.505981
123.364966	201.187134	168.056488
123.417395	183.429718	163.269043
123.469824	213.794708	169.906616
123.522253	209.026337	191.059113
123.574682	181.484222	169.487000
123.627110	208.854675	166.091919
123.679539	202.178955	186.729431
123.731968	200.023651	159.587860
123.784397	208.797455	159.816742
123.836826	187.702179	177.097321
123.889254	200.729370	172.233582
123.941683	189.495087	166.931152
123.994112	212.650299	167.560577
124.046541	210.323334	177.268982
124.098970	177.707672	164.012909
124.151398	186.100006	165.386200
124.203827	179.862976	145.931244
124.256256	188.484192	173.110962
124.308685	206.108093	168.895721
124.361114	215.225220	178.375244
124.413542	179.328918	161.266327
124.465971	187.950134	167.255402
124.518400	196.266174	164.012909
124.570829	208.206177	185.832977
124.623258	175.590515	148.296356
124.675686	205.230713	151.824951
124.728115	210.323334	173.912048
124.780544	212.421417	156.459808
124.832973	202.789307	161.247253
124.885402	206.928253	172.348022
124.937830	212.516785	178.222656
124.990259	215.320587	186.367035
125.042688	195.388794	188.121796
125.095117	176.677704	152.854919
125.147546	192.241669	171.413422
125.199974	200.786591	165.920258
125.252403	190.372467	160.388947
125.304832	193.729401	172.748566
125.357261	178.871155	161.724091
125.409690	196.113586	189.056396
125.462118	192.756653	179.309845
125.514547	189.247131	151.977539
125.566976	189.361572	159.206390
125.619405	193.176270	175.724030
125.671834	235.748291	176.944733
125.724262	197.067261	153.141022
125.776691	193.901062	167.865753
125.829120	193.862915	169.982910
125.881549	176.467896	171.794891
125.933978	196.361542	156.898499
125.986406	212.097168	157.814026
126.038835	200.901031	152.664185
126.091264	224.323273	158.843994
126.143693	204.429626	161.857605
126.196122	216.407776	166.931152
126.248550	242.919922	183.143616
126.300979	198.402405	164.489746
126.353408	197.124481	174.083710
126.405837	200.405121	167.274475
126.458266	201.549530	165.920258
126.510694	181.427002	156.211853
126.563123	194.511414	173.244476
126.615552	191.078186	174.446106
126.667981	194.187164	179.080963
126.720410	209.960937	189.876556
126.772838	215.816498	182.418823
126.825267	219.917297	181.159973
126.877696	188.941956	147.151947
126.930125	192.661285	156.822205
126.982554	165.367126	166.435242
127.034982	213.985443	175.380707
127.087411	214.157104	181.694031
127.139840	174.331665	155.010223
127.192269	204.277039	169.906616
127.244698	206.375122	176.277161
127.297126	224.704742	180.988312
127.349555	206.394196	184.631348
127.401984	222.492218	164.642334
127.454413	189.685822	147.838593
127.506842	206.546783	169.868469
127.559270	180.568695	159.091949
127.611699	206.394196	156.784058
127.664128	204.372406	158.042908
127.716557	182.132721	160.541534
127.768986	209.140778	181.617737
127.821414	193.462372	170.612335
127.873843	204.601288	162.544250
127.926272	188.064575	163.211823
127.978701	195.369720	162.544250
128.031130	197.868347	162.506104
128.083558	212.497711	176.792145
128.135987	191.974640	160.331726
128.188416	224.342346	179.500580
128.240845	243.644714	187.683105
128.293274	208.492279	157.814026
128.345702	194.358826	170.536041
128.398131	216.541290	172.176361
128.450560	220.355988	168.418884
128.502989	204.067230	169.563293
128.555418	186.157227	159.740448
128.607846	190.467834	155.277252
128.660275	197.677612	178.928375
128.712704	201.320648	184.154510
128.765133	210.456848	163.040161
128.817562	203.113556	165.214539
128.869990	200.977325	194.969177
128.922419	207.405090	149.726868
128.974848	190.505981	182.609558
129.027277	187.015533	172.195435
129.079706	189.228058	162.220001
129.132134	196.437836	170.593262
129.184563	212.955475	159.263611
129.236992	233.802795	165.405273
129.289421	211.906433	161.666870
129.341850	171.833038	157.203674
129.394278	213.603973	166.740417
129.446707	207.748413	170.001984
129.499136	215.492249	177.822113
129.551565	192.966461	161.991119
129.603994	199.394226	165.290833
129.656422	188.713074	166.034698
129.708851	183.296204	179.462433
129.761280	197.505951	175.476074
129.813709	218.544006	169.181824
129.866138	221.481323	183.696747
129.918566	178.852081	177.192688
129.970995	192.680359	169.677734
130.023424	208.377838	155.296326
130.075853	194.549561	138.168335
130.128282	194.339752	191.936493
130.180710	196.132660	154.190063
130.233139	205.593109	164.070129
130.285568	186.614990	168.170929
130.337997	179.405212	146.369934
130.390426	223.770142	173.854828
130.442854	225.620270	178.985596
130.495283	195.827484	156.421661
130.547712	189.571381	156.669617
130.600141	224.514008	164.756775
130.652570	193.843842	152.416229
130.704998	216.884613	197.410583
130.757427	176.429749	153.484344
130.809856	201.244354	155.067444
130.862285	198.516846	179.080963
130.914714	202.484131	172.462463
130.967142	191.974640	165.748596
131.019571	178.928375	141.429901
131.072000	189.952850	171.203613
131.124429	225.334167	199.947357
131.176858	180.778503	173.072815
131.229286	206.718445	167.732239
131.281715	203.952789	172.500610
131.334144	217.590332	163.841248
131.386573	195.178986	166.740417
131.439002	232.410431	186.805725
131.491430	217.018127	192.680359
131.543859	208.683014	174.922943
131.596288	187.988281	158.596039
131.648717	184.879303	160.102844
131.701146	192.565918	157.871246
131.753574	195.198059	160.446167
131.806003	215.892792	172.729492
131.858432	164.031982	141.963959
131.910861	200.843811	157.299042
131.963290	191.287994	171.623230
132.015718	186.710358	181.484222
132.068147	206.108093	179.424286
132.120576	190.372467	178.947449
132.173005	212.802887	176.811218
132.225434	206.375122	181.713104
132.277862	183.963776	157.108307
132.330291	186.500549	165.538788
132.382720	179.271698	163.326263
132.435149	179.958344	167.465210
132.487578	172.710419	162.200928
132.540006	192.298889	168.609619
132.592435	173.549652	154.933929
132.644864	190.639496	175.228119
132.697293	188.579559	183.219910
132.749722	210.285187	174.369812
132.802150	216.293335	163.879395
132.854579	209.350586	154.018402
132.907008	169.792175	133.571625
132.959437	190.925598	165.061951
133.011866	198.402405	164.852142
133.064294	220.165253	173.778534
133.116723	218.296051	168.056488
133.169152	208.454132	173.530579
133.221581	212.306976	153.903961
133.274010	189.971924	163.307190
133.326438	202.045441	171.432495
133.378867	182.380676	163.631439
133.431296	201.606750	176.677704
133.483725	196.151733	173.473358
133.536154	186.443329	159.893036
133.588582	195.465088	173.473358
133.641011	221.843719	184.879303
133.693440	228.748322	164.871216
133.745869	211.563110	179.824829
133.798298	217.208862	171.813965
133.850726	189.456940	161.685944
133.903155	174.617767	134.258270
133.955584	182.170868	158.004761
134.008013	201.015472	168.972015
134.060442	214.309692	186.100006
134.112870	204.677582	159.969330
134.165299	198.059082	174.465179
134.217728	200.309753	184.574127
134.270157	199.775696	157.222748
134.322586	180.377960	184.097290
134.375014	194.320679	169.773102
134.427443	203.189850	148.544312
134.479872	173.130035	174.636841
134.532301	204.086304	154.609680
134.584730	194.911957	167.770386
134.637158	205.268860	162.429810
134.689587	207.786560	146.846771
134.742016	193.691254	166.244507
134.794445	182.132721	147.075653
134.846874	200.252533	152.683258
134.899302	179.405212	163.402557
134.951731	186.805725	160.083771
135.004160	197.067261	154.170990
135.056589	192.050934	160.045624
135.109018	216.274261	186.595917
135.161446	205.211639	167.579651
135.213875	214.595795	165.748596
135.266304	191.459656	166.511536
135.318733	215.072632	167.942047
135.371162	212.478638	159.988403
135.423590	178.451538	150.756836
135.476019	195.045471	168.533325
135.528448	183.849335	163.707733
135.580877	220.775604	164.089203
135.633306	188.217163	155.563354
135.685734	178.756714	180.435181
135.738163	180.091858	177.307129
135.790592	200.901031	166.606903
135.843021	190.448761	170.936584
135.895450	179.653168	169.448853
135.947878	193.424225	160.083771
136.000307	188.694000	153.064728
136.052736	211.620331	160.827637
136.105165	192.432404	162.067413
136.157594	194.416046	158.882141
136.210022	202.159882	181.198120
136.262451	190.658569	156.040192
136.314880	207.538605	147.628784
136.367309	209.007263	165.672302
136.419738	198.154449	149.688721
136.472166	193.519592	173.072815
136.524595	211.124420	173.206329
136.577024	214.538574	170.783997
136.629453	229.282379	202.388763
136.681882	208.339691	165.424347
136.734310	198.631287	176.849365
136.786739	190.162659	167.465210
136.839168	189.132690	175.132751
136.891597	200.309753	142.898560
136.944026	191.135406	172.138214
136.996454	216.903687	156.059265
137.048883	185.832977	155.410767
137.101312	187.606812	185.947418
137.153741	196.552277	163.383484
137.206170	189.990997	181.331635
137.258598	211.372375	183.792114
137.311027	195.121765	149.936676
137.363456	220.680237	162.410736
137.415885	210.933685	180.873871
137.468314	177.841187	150.928497
137.520742	225.601196	183.906555
137.573171	193.042755	165.233612
137.625600	204.658508	182.437897
137.678029	172.519684	156.688690
137.730458	187.149048	177.364349
137.782886	181.350708	169.925690
137.835315	197.353363	173.683167
137.887744	204.696655	156.555176
137.940173	191.059113	175.399780
137.992602	212.421417	191.879272
138.045030	197.277069	168.037415
138.097459	213.336945	171.661377
138.149888	206.699371	187.644958
138.202317	189.437866	163.211823
138.254746	190.849304	165.023804
138.307174	200.958252	169.811249
138.359603	173.740387	143.127441
138.412032	205.764771	173.053741
138.464461	188.617706	171.070099
138.516890	206.527710	165.348053
138.569318	225.811005	173.816681
138.621747	185.222626	175.285339
138.674176	179.901123	162.487030
138.726605	211.544037	178.928375
138.779034	200.653076	173.053741
138.831462	194.549561	161.323547
138.883891	198.268890	152.301788
138.936320	196.914673	148.506165
138.988749	195.446014	157.356262
139.041178	187.492371	170.440674
139.093606	195.369720	177.650452
139.146035	185.661316	164.432526
139.198464	191.268921	154.075623
139.250893	198.268890	178.718567
139.303322	176.448822	155.429840
139.355750	193.176270	162.105560
139.408179	170.612335	159.358978
139.460608	192.584991	169.239044
139.513037	197.620392	182.018280
139.565466	206.699371	164.260864
139.617894	199.928284	164.566040
139.670323	189.876556	154.132843
139.722752	185.432434	173.053741
139.775181	194.816589	163.192749
139.827610	208.168030	182.495117
139.880038	177.383423	148.105621
139.932467	179.195404	150.699615
139.984896	186.309814	184.326172
140.037325	203.170776	164.203644
140.089754	197.238922	181.026459
140.142182	187.911987	157.413483
140.194611	194.797516	170.116425
140.247040	200.767517	193.157196
140.299469	212.135315	171.852112
140.351898	176.811218	157.260895
140.404326	189.800262	167.922974
140.456755	182.189941	153.636932
140.509184	189.151764	158.157349
140.561613	217.609406	185.985565
140.614042	187.568665	166.416168
140.666470	198.249817	169.429779
140.718899	218.982697	169.773102
140.771328	230.121613	183.944702
140.823757	187.053680	150.756836
140.876186	195.732117	165.767670
140.928614	231.094360	172.023773
140.981043	212.535858	175.495148
141.033472	204.277039	161.533356
141.085901	221.138000	186.214447
141.138330	208.244324	194.206238
141.190758	214.214325	193.176270
141.243187	198.173523	166.339874
141.295616	187.358856	141.830444
141.348045	190.734863	168.590546
141.400474	209.274292	176.677704
141.452902	189.018250	172.634125
141.505331	198.841095	173.492432
141.557760	200.881958	164.966583
141.610189	220.928192	205.554962
141.662618	210.552216	168.170929
141.715046	191.459656	168.132782
141.767475	186.271667	152.473450
141.819904	195.083618	170.001984
141.872333	195.903778	159.664154
141.924762	226.573944	165.710449
141.977190	205.535889	155.696869
142.029619	195.198059	150.909424
142.082048	174.541473	144.977570
142.134477	198.993683	160.751343
142.186906	193.977356	158.233643
142.239334	193.138123	152.206421
142.291763	186.958313	153.369904
142.344192	203.056335	166.835785
142.396621	199.298859	173.511505
142.449050	182.952881	159.244537
142.501478	194.282532	170.822144
142.553907	204.868317	183.029175
142.606336	189.571381	152.931213
142.658765	169.963837	150.337219
142.711194	210.170746	181.636810
142.763622	206.089020	173.912048
142.816051	205.154419	176.124573
142.868480	206.413269	186.824799
142.920909	195.617676	161.533356
142.973338	187.969208	178.756714
143.025766	181.140900	163.726807
143.078195	190.639496	158.214569
143.130624	196.495056	171.108246
143.183053	185.317993	157.127380
143.235482	205.039978	171.890259
143.287910	203.609467	168.743134
143.340339	195.465088	156.421661
143.392768	209.560394	185.375214
143.445197	189.247131	187.740326
143.497626	198.497772	146.236420
143.550054	188.465118	165.367126
143.602483	222.396851	185.031891
143.654912	212.726593	184.268951
143.707341	191.555023	178.890228
143.759770	187.015533	166.015625
143.812198	199.012756	161.800385
143.864627	208.320618	177.650452
143.917056	168.457031	154.781342
143.969485	179.138184	160.369873
144.021914	204.467773	163.192749
144.074342	181.961060	154.800415
144.126771	186.004639	169.754028
144.179200	214.805603	155.334473
144.231629	166.149139	158.691406
144.284058	192.871094	151.958466
144.336486	213.699341	155.715942
144.388915	209.636688	168.609619
144.441344	209.941864	156.898499
144.493773	188.236237	167.751312
144.546202	210.742950	154.247284
144.598630	192.737579	188.655853
144.651059	198.936462	159.473419
144.703488	187.053680	151.710510
144.755917	202.026367	174.236298
144.808346	185.928345	172.271729
144.860774	203.533173	171.375275
144.913203	216.102600	164.356232
144.965632	180.492401	150.337219
145.018061	215.568542	165.901184
145.070490	196.342468	165.519714
145.122918	198.898315	149.040222
145.175347	201.950073	154.914856
145.227776	194.301605	172.214508
145.280205	207.672119	173.053741
145.332634	202.484131	158.615112
145.385062	182.609558	146.961212
145.437491	191.230774	177.364349
145.489920	170.497894	155.487061
145.542349	183.086395	155.086517
145.594778	200.786591	164.318085
145.647206	204.391479	176.143646
145.699635	204.925537	170.707703
145.752064	226.325989	170.536041
145.804493	198.478699	175.151825
145.856922	239.238739	193.557739
145.909350	196.075439	176.868439
145.961779	177.936554	161.685944
146.014208	190.792084	174.484253
146.066637	194.778442	170.040131
146.119066	185.108185	149.154663
146.171494	216.064453	184.726715
146.223923	166.740417	153.408051
146.276352	189.285278	165.596008
146.328781	190.601349	181.560516
146.381210	219.249725	167.617798
146.433638	191.726685	177.898407
146.486067	239.143372	181.865692
146.538496	203.304291	168.285370
146.590925	186.443329	170.383453
146.643354	193.996429	162.258148
146.695782	195.522308	158.824921
146.748211	214.462280	169.963837
146.800640	184.020996	147.399902
146.853069	210.704803	168.609619
146.905498	196.208954	170.421600
146.957926	190.124512	174.007416
147.010355	193.157196	159.339905
147.062784	189.895630	168.895721
147.115213	208.225250	175.933838
147.167642	208.816528	161.533356
147.220070	185.775757	179.615021
147.272499	180.091858	167.045593
147.324928	211.925507	177.402496
147.377357	179.347992	172.615051
147.429786	199.813843	175.075531
147.482214	197.486877	158.348083
147.534643	201.816559	156.669617
147.587072	187.625885	153.312683
147.639501	191.612244	159.130096
147.691930	231.208801	187.625885
147.744358	207.805634	174.999237
147.796787	200.862885	191.440582
147.849216	209.941864	152.378082
147.901645	204.753876	149.822235
147.954074	184.268951	178.413391
148.006502	194.606781	155.849457
148.058931	225.448608	168.190002
148.111360	192.146301	180.377960
148.163789	195.503235	171.203613
148.216218	183.334351	162.658691
148.268646	211.849213	168.876648
148.321075	202.713013	174.903870
148.373504	207.805634	172.653198
148.425933	214.614868	167.675018
148.478362	202.484131	172.252655
148.530790	227.565765	190.639496
148.583219	191.230774	157.985687
148.635648	221.004486	184.516907
148.688077	193.233490	161.304474
148.740506	191.326141	171.298981
148.792934	210.876465	196.342468
148.845363	177.822113	151.634216
148.897792	174.942017	151.462555
148.950221	205.249786	157.184601
149.002650	188.007355	179.939270
149.055078	206.375122	168.399811
149.107507	218.544006	164.947510
149.159936	208.873749	179.977417
149.212365	196.914673	170.764923
149.264794	195.770264	173.168182
149.317222	196.552277	162.258148
149.369651	186.023712	162.544250
149.422080	190.792084	161.838531
149.474509	197.296143	149.593353
149.526938	199.241638	166.263580
149.579366	179.386139	167.198181
149.631795	186.100006	168.361664
149.684224	178.298950	159.931183
149.736653	196.170807	172.863007
149.789082	184.020996	171.241760
149.841510	178.833008	164.375305
149.893939	208.568573	174.064636
149.946368	210.876465	156.822205
149.998797	187.759399	176.925659
150.051226	215.473175	171.871185
150.103654	193.195343	165.843964
150.156083	197.029114	178.241730
150.208512	212.554932	181.751251
150.260941	209.121704	172.595978
150.313370	204.277039	161.552429
150.365798	219.593048	167.789459
150.418227	208.778381	158.290863
150.470656	220.394135	178.279877
150.523085	193.347931	166.969299
150.575514	199.604034	183.868408
150.627942	215.034485	171.966553
150.680371	185.432434	167.789459
150.732800	203.800201	163.364410
150.785229	183.639526	162.601471
150.837658	194.072723	173.244476
150.890086	227.966309	174.388885
150.942515	195.465088	174.274445
150.994944	194.473267	177.021027
151.047373	191.059113	154.190063
151.099802	200.405121	155.334473
151.152230	189.456940	164.318085
151.204659	195.178986	148.086548
151.257088	181.083679	176.715851
151.309517	216.560364	164.279938
151.361946	200.366974	161.590576
151.414374	220.832825	180.568695
151.466803	207.767487	188.846588
151.519232	208.377838	163.707733
151.571661	200.786591	145.397186
151.624090	186.977386	153.331757
151.676518	206.813812	155.296326
151.728947	200.176239	152.568817
151.781376	212.440491	182.666779
151.833805	219.726562	163.345337
151.886234	208.206177	168.304443
151.938662	208.568573	159.797668
151.991091	201.206207	169.944763
152.043520	197.238922	154.838562
152.095949	205.612183	165.386200
152.148378	226.707458	148.735046
152.200806	210.208893	169.162750
152.253235	191.726685	165.328979
152.305664	206.851959	164.852142
152.358093	189.037323	174.827576
152.410522	210.704803	162.067413
152.462950	171.318054	152.549744
152.515379	193.042755	155.391693
152.567808	215.072632	164.604187
152.620237	216.236115	164.794922
152.672666	196.552277	156.116486
152.725094	204.143524	156.459808
152.777523	194.892883	160.598755
152.829952	182.170868	162.105560
152.882381	191.841125	138.721466
152.934810	190.677643	153.236389
152.987238	208.911896	156.593323
153.039667	203.514099	194.911957
153.092096	226.726532	182.094574
153.144525	192.375183	161.361694
153.196954	197.010040	170.135498
153.249382	217.533112	170.803070
153.301811	197.715759	159.473419
153.354240	183.868408	176.296234
153.406669	174.198151	157.089233
153.459098	205.059052	131.416321
153.511526	193.996429	158.252716
153.563955	198.764801	153.217316
153.616384	233.459473	164.184570
153.668813	196.590424	146.236420
153.721242	224.208832	168.170929
153.773670	184.669495	158.863068
153.826099	192.775726	167.198181
153.878528	207.748413	166.530609
153.930957	225.334167	176.410675
153.983386	202.274323	164.585114
154.035814	178.928375	169.944763
154.088243	203.437805	165.271759
154.140672	195.751190	154.953003
154.193101	186.595917	152.206421
154.245530	200.386047	157.127380
154.297958	210.170746	170.822144
154.350387	203.952789	165.977478
154.402816	210.685730	168.132782
154.455245	183.925629	172.290802
154.507674	185.413361	165.500641
154.560102	206.298828	163.345337
154.612531	190.010071	161.018372
154.664960	199.813843	169.868469
154.717389	210.838318	154.571533
154.769818	219.039917	170.402527
154.822246	177.421570	171.642303
154.874675	205.497742	161.170959
154.927104	196.056366	159.721375
154.979533	206.031799	150.527954
155.031962	189.762115	171.051025
155.084390	207.424164	160.331726
155.136819	176.429749	149.288177
155.189248	209.522247	161.800385
155.241677	194.396973	150.012970
155.294106	188.636780	160.026550
155.346534	210.723877	154.151917
155.398963	202.522278	166.225433
155.451392	190.715790	172.157288
155.503821	200.386047	160.388947
155.556250	188.560486	196.647644
155.608678	217.666626	161.323547
155.661107	215.835571	166.950226
155.713536	190.734863	171.642303
155.765965	219.573975	184.936523
155.818394	204.162598	155.773163
155.870822	189.781189	165.081024
155.923251	184.459686	157.032013
155.975680	207.977295	174.636841
156.028109	197.429657	178.756714
156.080538	182.971954	156.822205
156.132966	223.312378	169.200897
156.185395	226.764679	198.211670
156.237824	175.762177	172.748566
156.290253	216.789246	196.151733
156.342682	213.260651	185.623169
156.395110	192.661285	146.656036
156.447539	198.707581	163.574219
156.499968	198.612213	168.437958
156.552397	221.557617	173.263550
156.604826	174.865723	157.661438
156.657254	212.421417	165.252686
156.709683	197.658539	172.710419
156.762112	194.358826	178.241730
156.814541	209.331512	167.579651
156.866970	188.484192	178.718567
156.919398	193.691254	157.508850
156.971827	208.740234	180.034637
157.024256	198.268890	158.767700
157.076685	175.476074	151.557922
157.129114	198.554993	168.247223
157.181542	198.211670	152.282715
157.233971	205.192566	171.451569
157.286400	210.933685	173.034668
157.338829	183.372498	157.012939
157.391258	200.614929	166.053772
157.443686	177.364349	164.451599
157.496115	203.037262	170.440674
157.548544	207.595825	183.715820
157.600973	199.947357	161.228180
157.653402	192.298889	162.734985
157.705830	197.658539	177.936554
157.758259	219.001770	181.503296
157.810688	184.459686	187.911987
157.863117	199.928284	169.982910
157.915546	193.157196	159.282684
157.967974	217.361450	180.320740
158.020403	186.557770	162.906647
158.072832	225.257874	170.650482
158.125261	196.247101	164.947510
158.177690	187.816620	160.961151
158.230118	204.029083	151.958466
158.282547	174.217224	157.642365
158.334976	218.276978	190.982819
158.387405	182.266235	155.105591
158.439834	216.121674	196.437836
158.492262	199.851990	165.100098
158.544691	219.745636	167.350769
158.597120	205.402374	159.950256
158.649549	216.217041	151.996613
158.701978	214.920044	169.582367
158.754406	194.110870	168.571472
158.806835	182.800293	157.127380
158.859264	184.497833	164.470673
158.911693	214.538574	160.903931
158.964122	196.914673	161.151886
159.016550	203.399658	181.751251
159.068979	183.734894	160.522461
159.121408	194.473267	156.784058
159.173837	202.274323	176.753998
159.226266	215.892792	161.285400
159.278694	208.911896	170.841217
159.331123	206.947327	177.536011
159.383552	204.505920	163.860321
159.435981	202.693939	183.582306
159.488410	200.500488	173.568726
159.540838	243.206024	171.508789
159.593267	191.936493	150.909424
159.645696	199.337006	167.503357
159.698125	196.456909	174.140930
159.750554	208.377838	168.380737
159.802982	209.541321	164.661407
159.855411	191.345215	166.454315
159.907840	205.268860	165.843964
159.960269	181.961060	165.233612
160.012698	185.375214	183.525085
160.065126	208.320618	165.100098
160.117555	182.018280	160.026550
160.169984	209.522247	172.367096
160.222413	199.146271	162.162781
160.274842	179.691315	170.955658
160.327270	197.830200	183.620453
160.379699	182.704926	154.743195
160.432128	202.217102	176.963806
160.484557	226.631165	169.944763
160.536986	222.568512	206.756592
160.589414	202.579498	164.108276
160.641843	215.892792	155.887604
160.694272	192.241669	154.476166
160.746701	226.097107	167.045593
160.799130	171.432495	151.424408
160.851558	205.974579	178.585052
160.903987	184.288025	166.206360
160.956416	197.544098	168.476105
161.008845	185.909271	163.726807
161.061274	198.001862	158.996582
161.113702	216.732025	158.462524
161.166131	184.040070	155.849457
161.218560	191.078186	167.446136
161.270989	196.266174	170.154572
161.323418	204.238892	177.745819
161.375846	201.988220	176.506042
161.428275	218.410492	185.565948
161.480704	198.612213	177.707672
161.533133	207.443237	152.759552
161.585562	193.557739	166.625977
161.637990	202.636719	172.939301
161.690419	215.320587	150.871277
161.742848	196.323395	175.380707
161.795277	178.623199	145.702362
161.847706	201.969147	161.724091
161.900134	185.909271	154.438019
161.952563	189.151764	164.966583
162.004992	194.816589	172.290802
162.057421	197.830200	156.936646
162.109850	188.007355	161.132812
162.162278	208.969116	154.037476
162.214707	190.868378	182.075500
162.267136	199.871063	179.386139
162.319565	194.320679	161.666870
162.371994	177.421570	147.953033
162.424422	223.712921	177.497864
162.476851	192.966461	175.838470
162.529280	194.854736	167.388916
162.581709	182.552338	171.852112
162.634138	180.892944	155.239105
162.686566	204.982758	169.487000
162.738995	186.653137	163.516998
162.791424	193.119049	170.879364
162.843853	181.369781	164.337158
162.896282	202.999115	171.318054
162.948710	195.312500	145.835876
163.001139	208.873749	167.064667
163.053568	213.832855	173.492432
163.105997	193.042755	166.492462
163.158426	203.876495	178.451538
163.210854	189.876556	177.612305
163.263283	194.072723	184.593201
163.315712	203.304291	161.685944
163.368141	191.421509	157.337189
163.420570	215.682983	162.868500
163.472998	176.544189	154.762268
163.525427	176.849365	151.958466
163.577856	205.688477	152.854919
163.630285	201.644897	159.988403
163.682714	180.873871	150.527954
163.735142	190.544128	171.794891
163.787571	172.843933	143.604279
163.840000	197.982788	177.917480
163.892429	210.990906	182.762146
163.944858	203.628540	161.285400
163.997286	204.334259	193.920135
164.049715	172.023773	155.410767
164.102144	210.609436	170.936584
164.154573	200.996399	162.124634
164.207002	212.516785	157.299042
164.259430	195.369720	173.778534
164.311859	185.489655	165.386200
164.364288	189.876556	160.865784
164.416717	186.443329	173.149109
164.469146	195.579529	169.105530
164.521574	192.203522	181.694031
164.574003	186.824799	150.775909
164.626432	198.459625	179.100037
164.678861	227.737427	170.898437
164.731290	215.606689	165.710449
164.783718	214.691162	172.138214
164.836147	180.721283	163.688660
164.888576	202.808380	170.116425
164.941005	204.696655	167.980194
164.993434	203.571320	176.715851
165.045862	244.560242	186.462402
165.098291	185.127258	179.328918
165.150720	196.495056	171.070099
165.203149	209.712982	155.906677
165.255578	198.249817	154.209137
165.308006	189.132690	154.972076
165.360435	179.347992	165.882111
165.412864	205.917358	160.961151
165.465293	184.783936	163.555145
165.517722	196.781158	170.688629
165.570150	217.075348	165.557861
165.622579	185.718536	169.315338
165.675008	196.933746	158.176422
165.727437	193.519592	159.626007
165.779866	187.206268	167.770386
165.832294	191.593170	150.566101
165.884723	189.876556	151.386261
165.937152	215.969086	152.397156
165.989581	216.503143	177.230835
166.042010	191.535950	158.500671
166.094438	189.666748	169.601440
166.146867	182.189941	162.639618
166.199296	192.317963	188.083649
166.251725	204.219818	149.040222
166.304154	227.756500	147.743225
166.356582	194.892883	160.140991
166.409011	195.999146	171.737671
166.461440	226.726532	173.587799
166.513869	206.546783	178.203583
166.566298	208.225250	164.279938
166.618726	206.546783	152.263641
166.671155	221.614838	182.285309
166.723584	209.388733	177.688599
166.776013	242.614746	183.830261
166.828442	198.364258	180.072784
166.880870	201.721191	166.435242
166.933299	210.590363	150.833130
166.985728	197.906494	158.271790
167.038157	180.683136	167.636871
167.090586	208.587646	183.391571
167.143014	211.353302	176.658630
167.195443	214.653015	178.070068
167.247872	240.669250	174.293518
167.300301	210.647583	177.574158
167.352730	202.751160	164.413452
167.405158	227.737427	172.653198
167.457587	191.631317	156.860352
167.510016	184.001923	170.097351
167.562445	203.018188	163.459778
167.614874	195.827484	174.350739
167.667302	215.435028	172.023773
167.719731	218.296051	183.506012
167.772160	180.664062	166.931152
167.824589	198.860168	161.609650
167.877018	219.211578	194.492340
167.929446	200.977325	159.969330
167.981875	194.110870	168.952942
168.034304	190.696716	156.364441
168.086733	195.198059	164.279938
168.139162	160.236359	160.808563
168.191590	213.222504	155.830383
168.244019	189.399719	176.601410
168.296448	154.895782	143.203735
168.348877	214.633942	173.606873
168.401306	187.950134	169.830322
168.453734	195.980072	179.214478
168.506163	199.680328	166.587830
168.558592	184.230804	180.015564
168.611021	212.135315	175.457001
168.663450	212.688446	169.754028
168.715878	203.361511	207.881927
168.768307	190.906525	180.702209
168.820736	243.110657	181.293488
168.873165	205.898285	153.579712
168.925594	190.067291	149.765015
168.978022	206.317902	179.634094
169.030451	210.800171	175.209045
169.082880	184.364319	155.601501
169.135309	198.040009	160.064697
169.187738	176.601410	148.525238
169.240166	199.260712	168.209076
169.292595	207.500458	166.339874
169.345024	186.824799	151.958466
169.397453	216.941833	167.140961
169.449882	199.127197	173.244476
169.502310	192.661285	145.511627
169.554739	212.192535	162.124634
169.607168	192.451477	170.917511
169.659597	205.001831	172.634125
169.712026	192.070007	169.181824
169.764454	211.105347	172.348022
169.816883	195.140839	164.985657
169.869312	191.497803	164.909363
169.921741	197.296143	152.988434
169.974170	192.699432	177.268982
170.026598	190.067291	179.939270
170.079027	239.582062	183.429718
170.131456	207.748413	182.533264
170.183885	200.538635	158.061981
170.236314	218.486786	181.255341
170.288742	199.337006	179.920197
170.341171	162.754059	179.252625
170.393600	209.217072	168.285370
170.446029	181.884766	159.091949
170.498458	203.285217	165.042877
170.550886	185.661316	178.546906
170.603315	207.767487	183.734894
170.655744	196.228027	161.762238
170.708173	189.628601	169.754028
170.760602	177.383423	165.901184
170.813030	187.702179	179.195404
170.865459	200.271606	156.707764
170.917888	202.693939	156.803131
170.970317	183.544159	168.037415
171.022746	195.541382	141.963959
171.075174	209.636688	166.301727
171.127603	204.219818	167.064667
171.180032	194.301605	166.091919
171.232461	204.906464	178.985596
171.284890	189.933777	175.800323
171.337318	182.819366	158.214569
171.389747	208.072662	172.195435
171.442176	203.952789	165.195465
171.494605	205.154419	161.094666
171.547034	198.116302	168.495178
171.599462	201.759338	167.789459
171.651891	191.459656	167.198181
171.704320	199.737549	164.699554
171.756749	194.530487	170.364380
171.809178	172.080994	180.377960
171.861606	189.151764	165.843964
171.914035	193.595886	159.378052
171.966464	185.050964	155.467987
172.018893	195.713043	157.890320
172.071322	169.429779	161.151886
172.123750	172.252655	157.718658
172.176179	208.930969	157.108307
172.228608	185.737610	143.871307
172.281037	222.091675	204.505920
172.333466	215.148926	173.015594
172.385894	242.214203	159.206390
172.438323	181.007385	160.408020
172.490752	201.702118	155.601501
172.543181	187.721252	166.893005
172.595610	191.307068	151.805878
172.648038	210.723877	178.489685
172.700467	209.445953	157.470703
172.752896	198.383331	172.061920
172.805325	203.552246	175.914764
172.857754	196.495056	164.852142
172.910182	208.702087	185.947418
172.962611	206.489563	174.713135
173.015040	191.612244	145.454407
173.067469	220.508575	168.323517
173.119898	181.751251	161.457062
173.172326	216.922760	162.124634
173.224755	211.849213	146.694183
173.277184	193.977356	168.647766
173.329613	186.939240	154.304504
173.382042	189.208984	165.443420
173.434470	192.432404	184.803009
173.486899	210.914612	165.920258
173.539328	193.805695	158.596039
173.591757	214.023590	184.764862
173.644186	194.511414	166.854858
173.696614	175.189972	147.991180
173.749043	207.347870	159.969330
173.801472	195.083618	157.375336
173.853901	198.249817	168.857574
173.906330	187.225342	168.647766
173.958758	185.737610	164.546967
174.011187	199.737549	165.920258
174.063616	196.781158	193.271637
174.116045	200.824738	176.696777
174.168474	211.658478	169.525146
174.220902	180.568695	166.301727
174.273331	219.020844	166.721344
174.325760	186.100006	156.974792
174.378189	182.876587	151.214600
174.430618	180.168152	156.459808
174.483046	191.020966	165.119171
174.535475	212.993622	172.004700
174.587904	206.451416	169.525146
174.640333	213.298798	177.993774
174.692762	182.666779	163.784027
174.745190	195.369720	154.457092
174.797619	206.413269	182.323456
174.850048	206.298828	172.157288
174.902477	189.723969	162.868500
174.954906	202.674866	170.726776
175.007334	180.873871	157.947540
175.059763	196.571350	176.448822
175.112192	197.448730	171.031952
175.164621	220.527649	151.138306
175.217050	186.557770	185.909271
175.269478	184.803009	172.557831
175.321907	185.775757	174.064636
175.374336	199.337006	151.691437
175.426765	190.505981	167.846680
175.479194	209.808350	173.645020
175.531622	187.034607	148.868561
175.584051	210.647583	162.525177
175.636480	186.138153	165.710449
175.688909	201.873779	164.146423
175.741338	199.909210	173.873901
175.793766	190.334320	165.596008
175.846195	214.004517	175.476074
175.898624	197.353363	155.448914
175.951053	189.647675	167.865753
176.003482	181.236267	175.457001
176.055910	195.426941	158.329010
176.108339	199.794769	170.764923
176.160768	210.056305	170.001984
176.213197	193.271637	171.222687
176.265626	206.356049	162.830353
176.318054	185.089111	147.209167
176.370483	214.347839	156.555176
176.422912	215.587616	163.249969
176.475341	208.625793	181.694031
176.527770	176.982880	162.506104
176.580198	215.892792	180.892944
176.632627	191.707611	170.497894
176.685056	200.405121	165.042877
176.737485	181.903839	180.759430
176.789914	193.881989	151.176453
176.842342	194.396973	155.391693
176.894771	211.105347	173.149109
176.947200	203.094482	185.241699
176.999629	224.761963	182.323456
177.052058	175.151825	150.527954
177.104486	212.478638	194.149017
177.156915	205.364227	164.470673
177.209344	170.059204	173.988342
177.261773	194.072723	179.729462
177.314202	198.993683	156.288147
177.366630	209.712982	174.560547
177.419059	200.252533	161.857605
177.471488	211.181641	168.704987
177.523917	208.530426	161.781311
177.576346	184.078217	189.342499
177.628774	172.843933	157.546997
177.681203	202.598572	143.318176
177.733632	201.358795	169.563293
177.786061	204.868317	175.724030
177.838490	189.361572	174.274445
177.890918	194.892883	163.860321
177.943347	201.454163	168.876648
177.995776	185.031891	146.331787
178.048205	195.579529	171.012878
178.100634	201.072693	176.334381
178.153062	190.906525	174.236298
178.205491	217.494965	162.982941
178.257920	192.031860	176.296234
178.310349	220.031738	168.800354
178.362778	202.941895	175.666809
178.415206	200.405121	170.898437
178.467635	197.067261	165.882111
178.520064	211.086273	166.168213
178.572493	209.751129	190.925598
178.624922	188.770294	169.124603
178.677350	198.802948	198.001862
178.729779	191.059113	177.040100
178.782208	199.260712	176.753998
178.834637	212.364197	162.677765
178.887066	172.271729	160.198212
178.939494	210.342407	166.835785
178.991923	184.707642	169.200897
179.044352	200.710297	159.645081
179.096781	190.792084	173.397064
179.149210	203.819275	174.045563
179.201638	213.222504	160.999298
179.254067	194.091797	176.887512
179.306496	174.274445	144.634247
179.358925	199.871063	163.688660
179.411354	188.751221	162.506104
179.463782	193.367004	149.002075
179.516211	208.358765	167.503357
179.568640	206.451416	181.369781
179.621069	219.631195	176.372528
179.673498	197.925568	160.045624
179.725926	182.590485	181.427002
179.778355	192.661285	164.051056
179.830784	200.462341	175.476074
179.883213	221.347809	155.830383
179.935642	195.159912	174.465179
179.988070	184.898376	174.198151
180.040499	194.454193	163.631439
180.092928	193.996429	192.146301
180.145357	175.476074	173.511505
180.197786	229.701996	180.854797
180.250214	198.078156	143.394470
180.302643	196.495056	166.721344
180.355072	181.694031	158.824921
180.407501	218.715668	170.822144
180.459930	197.811127	167.942047
180.512358	205.841064	156.326294
180.564787	186.614990	155.220032
180.617216	201.473236	151.176453
180.669645	211.105347	169.334412
180.722074	160.045624	164.966583
180.774502	216.274261	159.721375
180.826931	194.606781	176.677704
180.879360	186.614990	166.912079
180.931789	195.064545	157.108307
180.984218	198.364258	166.816711
181.036646	210.704803	198.421478
181.089075	197.620392	156.364441
181.141504	193.462372	158.329010
181.193933	191.535950	162.944794
181.246362	199.909210	172.500610
181.298790	220.985413	175.724030
181.351219	233.612061	171.184540
181.403648	198.192596	170.593262
181.456077	181.579590	172.386169
181.508506	200.977325	164.299011
181.560934	209.102631	180.015564
181.613363	206.298828	148.868561
181.665792	193.500519	136.775970
181.718221	202.274323	171.833038
181.770650	188.522339	139.980316
181.823078	210.800171	167.865753
181.875507	194.377899	164.642334
181.927936	216.159821	181.884766
181.980365	207.042694	167.446136
182.032794	207.138062	180.473328
182.085222	215.988159	176.963806
182.137651	185.947418	149.383545
182.190080	187.797546	161.685944
182.242509	209.579468	158.252716
182.294938	201.435089	149.154663
182.347366	199.089050	162.200928
182.399795	189.971924	161.705017
182.452224	209.541321	157.356262
182.504653	194.435120	179.958344
182.557082	196.399689	160.541534
182.609510	182.037354	138.664246
182.661939	202.045441	165.538788
182.714368	238.685608	175.685883
182.766797	197.353363	174.427032
182.819226	223.503113	172.138214
182.871654	213.203430	169.239044
182.924083	193.176270	171.165466
182.976512	183.315277	139.980316
183.028941	199.813843	151.939392
183.081370	205.097198	169.982910
183.133798	200.290680	171.546936
183.186227	221.900940	151.290894
183.238656	184.116364	151.576996
183.291085	214.843750	175.323486
183.343514	217.609406	188.140869
183.395942	197.467804	169.696808
183.448371	233.535767	177.917480
183.500800	204.105377	199.012756
183.553229	202.617645	161.323547
183.605658	199.661255	178.527832
183.658086	215.930939	168.437958
183.710515	193.901062	173.320770
183.762944	175.437927	169.410706
183.815373	220.890045	170.421600
183.867802	193.462372	161.743164
183.920230	178.909302	159.072876
183.972659	205.688477	162.734985
184.025088	218.410492	162.372589
184.077517	187.206268	158.824921
184.129946	195.884705	168.685913
184.182374	199.775696	168.609619
184.234803	192.890167	136.432648
184.287232	198.383331	165.290833
184.339661	170.173645	163.097382
184.392090	180.206299	165.061951
184.444518	187.835693	162.086487
184.496947	207.958221	154.876709
184.549376	209.827423	170.631409
184.601805	216.159821	163.421631
184.654234	215.148926	183.219910
184.706662	196.361542	161.056519
184.759091	191.192627	166.206360
184.811520	191.040039	177.173615
184.863949	181.522369	171.470642
184.916378	200.328827	166.969299
184.968806	191.612244	159.626007
185.021235	194.358826	170.574188
185.073664	180.950165	159.091949
185.126093	204.410553	151.596069
185.178522	181.636810	148.906708
185.230950	200.328827	169.887543
185.283379	189.800262	155.906677
185.335808	213.432312	182.991028
185.388237	203.456879	164.394379
185.440666	220.184326	164.966583
185.493094	195.274353	153.694153
185.545523	199.108124	178.546906
185.597952	182.590485	171.070099
185.650381	222.930908	171.451569
185.702810	177.135468	153.751373
185.755238	178.489685	169.811249
185.807667	185.260773	180.339813
185.860096	210.323334	157.604218
185.912525	220.890045	176.219940
185.964954	177.841187	163.459778
186.017382	192.337036	161.285400
186.069811	216.751099	187.244415
186.122240	206.260681	168.495178
186.174669	211.772919	171.623230
186.227098	202.045441	155.563354
186.279526	199.623108	169.715881
186.331955	208.187103	178.260803
186.384384	180.950165	168.914795
186.436813	203.819275	169.448853
186.489242	222.644806	172.386169
186.541670	188.560486	159.835815
186.594099	212.345123	179.214478
186.646528	198.001862	161.151886
186.698957	202.236176	165.367126
186.751386	187.397003	180.778503
186.803814	191.421509	168.323517
186.856243	206.890106	148.696899
186.908672	193.634033	172.634125
186.961101	191.555023	158.863068
187.013530	202.293396	174.369812
187.065958	184.478760	159.378052
187.118387	224.723816	177.478790
187.170816	198.593140	167.121887
187.223245	208.358765	147.418976
187.275674	198.078156	165.195465
187.328102	189.266205	168.075562
187.380531	213.527679	183.467865
187.432960	232.849121	164.737701
187.485389	188.350677	154.895782
187.537818	205.039978	156.688690
187.590246	193.080902	147.933960
187.642675	214.576721	170.822144
187.695104	192.699432	153.827667
187.747533	224.761963	169.429779
187.799962	205.898285	165.195465
187.852390	195.865631	159.606934
187.904819	197.906494	154.533386
187.957248	204.124451	158.138275
188.009677	207.309723	160.770416
188.062106	209.312439	156.631470
188.114534	217.304230	184.650421
188.166963	194.530487	178.966522
188.219392	198.364258	158.672333
188.271821	195.236206	169.715881
188.324250	200.309753	146.980286
188.376678	213.069916	167.312622
188.429107	195.751190	162.715912
188.481536	224.609375	166.797638
188.533965	203.094482	158.767700
188.586394	221.900940	170.097351
188.638822	214.443207	149.135590
188.691251	198.478699	155.849457
188.743680	196.743011	140.590668
188.796109	201.015472	179.748535
188.848538	203.495026	174.236298
188.900966	186.061859	184.898376
188.953395	187.835693	173.130035
189.005824	182.838440	164.451599
189.058253	204.067230	164.451599
189.110682	215.263367	179.576874
189.163110	175.838470	167.808533
189.215539	200.080872	172.672272
189.267968	185.737610	155.906677
189.320397	201.759338	171.852112
189.372826	206.108093	158.195496
189.425254	200.462341	165.176392
189.477683	185.165405	162.353516
189.530112	187.950134	165.977478
189.582541	179.195404	171.756744
189.634970	179.710388	157.260895
189.687398	206.127167	178.089142
189.739827	193.328857	161.476135
189.792256	199.222565	168.666840
189.844685	190.792084	161.037445
189.897114	188.541412	172.271729
189.949542	226.650238	185.966492
190.001971	187.091827	139.560699
190.054400	194.854736	198.211670
190.106829	214.424133	163.249969
190.159258	213.546753	177.459717
190.211686	218.658447	172.157288
190.264115	191.478729	169.677734
190.316544	189.189911	159.664154
190.368973	186.252594	148.200989
190.421402	180.397034	148.181915
190.473830	215.873718	181.159973
190.526259	202.617645	160.579681
190.578688	223.102570	186.061859
190.631117	189.990997	166.664124
190.683546	206.260681	173.721313
190.735974	217.647552	171.165466
190.788403	228.042603	162.963867
190.840832	224.399567	181.427002
190.893261	207.843781	178.527832
190.945690	214.271545	189.666748
190.998118	200.080872	171.337128
191.050547	218.029022	158.519745
191.102976	200.672150	160.446167
191.155405	194.206238	172.843933
191.207834	198.688507	177.402496
191.260262	187.759399	150.680542
191.312691	208.492279	181.522369
191.365120	182.685852	170.478821
191.417549	183.792114	165.061951
191.469978	188.369751	154.571533
191.522406	201.778412	156.936646
191.574835	193.233490	162.448883
191.627264	200.500488	161.075592
191.679693	172.538757	147.037506
191.732122	189.609528	188.236237
191.784550	194.683075	169.830322
191.836979	186.233521	171.070099
191.889408	208.396912	167.846680
191.941837	210.132599	183.773041
191.994266	154.609680	157.184601
192.046694	203.647614	161.323547
192.099123	209.560394	179.767609
192.151552	208.110809	181.331635
192.203981	219.669342	183.620453
192.256410	203.895569	174.903870
192.308838	190.258026	156.097412
192.361267	205.802917	156.860352
192.413696	196.990967	162.296295
192.466125	177.688599	176.887512
192.518554	196.628571	158.977509
192.570982	186.004639	152.130127
192.623411	206.813812	166.473389
192.675840	212.230682	156.116486
192.728269	211.162567	165.424347
192.780698	213.546753	184.402466
192.833126	189.781189	144.443512
192.885555	183.677673	137.901306
192.937984	202.713013	172.443390
192.990413	199.584961	150.852203
193.042842	197.830200	173.034668
193.095270	210.342407	163.879395
193.147699	242.290497	167.541504
193.200128	231.246948	168.514252
193.252557	207.500458	156.154633
193.304986	174.598694	171.527863
193.357414	208.644867	159.873962
193.409843	224.170685	180.416107
193.462272	202.941895	169.487000
193.514701	190.048218	164.127350
193.567130	228.519440	188.884735
193.619558	191.040039	154.209137
193.671987	192.279816	163.326263
193.724416	188.388824	153.694153
193.776845	196.800232	154.170990
193.829274	235.614777	183.219910
193.881702	185.813904	155.658722
193.934131	212.039948	164.432526
193.986560	203.361511	176.258087
194.038989	182.018280	161.628723
194.091418	192.794800	160.808563
194.143846	199.527740	183.887482
194.196275	215.263367	169.830322
194.248704	196.704865	149.097443
194.301133	201.110840	161.399841
194.353562	221.366882	189.857483
194.405990	210.914612	160.789490
194.458419	183.315277	162.334442
194.510848	209.197998	175.342560
194.563277	196.704865	167.751312
194.615706	202.388763	179.004669
194.668134	194.835663	173.435211
194.720563	188.751221	150.089264
194.772992	216.331482	168.724060
194.825421	243.988037	180.416107
194.877850	218.925476	171.852112
194.930278	185.184479	144.424438
194.982707	205.841064	177.154541
195.035136	193.004608	170.402527
195.087565	199.947357	156.917572
195.139994	177.593231	154.361725
195.192422	219.116211	157.051086
195.244851	174.140930	156.154633
195.297280	188.369751	172.843933
195.349709	207.023621	189.094543
195.402138	200.939178	174.198151
195.454566	183.429718	176.372528
195.506995	212.745667	175.533295
195.559424	208.873749	184.497833
195.611853	203.838348	171.146393
195.664282	206.375122	183.715820
195.716710	184.764862	154.857635
195.769139	175.113678	153.446198
195.821568	210.857391	162.582397
195.873997	212.097168	175.685883
195.926426	174.980164	155.925751
195.978854	224.761963	167.846680
196.031283	190.010071	160.484314
196.083712	200.519562	176.544189
196.136141	203.475952	163.669586
196.188570	200.233459	160.751343
196.240998	224.437714	186.977386
196.293427	207.195282	169.830322
196.345856	212.879181	154.972076
196.398285	195.865631	172.634125
196.450714	198.802948	167.636871
196.503142	196.819305	160.236359
196.555571	192.146301	193.691254
196.608000	217.056274	172.290802
196.660429	189.514160	182.437897
196.712858	208.568573	165.615082
196.765286	203.399658	163.249969
196.817715	207.347870	186.061859
196.870144	176.258087	171.470642
196.922573	195.007324	181.713104
196.975002	208.244324	166.778564
197.027430	203.227997	190.105438
197.079859	215.797424	174.350739
197.132288	171.470642	175.437927
197.184717	187.816620	160.579681
197.237146	193.634033	160.350800
197.289574	188.102722	144.176483
197.342003	207.328796	165.328979
197.394432	196.170807	164.852142
197.446861	174.598694	162.086487
197.499290	184.803009	145.893097
197.551718	190.010071	160.675049
197.604147	198.268890	161.457062
197.656576	198.993683	152.702332
197.709005	198.631287	160.560608
197.761434	191.459656	162.258148
197.813862	212.173462	171.260834
197.866291	213.489532	184.116364
197.918720	201.702118	165.309906
197.971149	201.377869	183.353424
198.023578	177.288055	158.138275
198.076006	195.121765	178.508759
198.128435	189.304352	167.331696
198.180864	204.315186	148.658752
198.233293	195.503235	170.803070
198.285722	209.331512	163.078308
198.338150	217.208862	182.323456
198.390579	195.751190	181.331635
198.443008	195.541382	169.925690
198.495437	184.822083	167.827606
198.547866	214.195251	147.991180
198.600294	209.331512	149.002075
198.652723	181.655884	170.421600
198.705152	187.473297	167.236328
198.757581	202.331543	159.339905
198.810010	176.162720	149.230957
198.862438	217.227936	157.089233
198.914867	207.805634	180.492401
198.967296	187.244415	170.459747
199.019725	188.846588	163.249969
199.072154	199.546814	161.037445
199.124582	206.966400	190.525055
199.177011	204.162598	168.018341
199.229440	210.533142	170.459747
199.281869	186.386108	158.386230
199.334298	188.751221	169.334412
199.386726	192.317963	164.031982
199.439155	197.410583	172.653198
199.491584	202.941895	173.454285
199.544013	206.718445	171.165466
199.596442	169.067383	154.495239
199.648870	182.723999	144.042969
199.701299	222.949982	186.138153
199.753728	200.748444	170.841217
199.806157	163.745880	154.705048
199.858586	190.181732	159.873962
199.911014	176.353455	152.645111
199.963443	198.287964	161.132812
200.015872	219.058990	166.130066
200.068301	204.277039	154.724121
200.120730	209.159851	182.704926
200.173158	213.317871	164.222717
200.225587	180.397034	165.462494
200.278016	175.495148	155.849457
200.330445	182.018280	187.721252
200.382874	201.530457	161.380768
200.435302	194.721222	145.397186
200.487731	184.497833	169.029236
200.540160	189.933777	164.966583
200.592589	193.538666	166.988373
200.645018	232.601166	175.075531
200.697446	193.462372	168.190002
200.749875	207.614899	184.135437
200.802304	180.892944	158.481598
200.854733	199.642181	166.416168
200.907162	195.064545	165.500641
200.959590	185.890198	154.457092
201.012019	206.050873	177.898407
201.064448	196.552277	170.936584
201.116877	195.465088	182.189941
201.169306	206.813812	177.097321
201.221734	189.399719	159.626007
201.274163	190.258026	139.350891
201.326592	210.514069	177.783966
201.379021	200.462341	158.843994
201.431450	178.794861	164.165497
201.483878	187.435150	159.568787
201.536307	189.743042	166.778564
201.588736	199.604034	162.525177
201.641165	190.296173	160.331726
201.693594	203.342438	174.980164
201.746022	193.271637	158.519745
201.798451	219.993591	160.312653
201.850880	182.304382	170.288086
201.903309	184.822083	162.010193
201.955738	184.421539	141.277313
202.008166	196.037292	153.961182
202.060595	217.571259	173.206329
202.113024	194.873810	171.585083
202.165453	227.127075	162.773132
202.217882	188.083649	147.304535
202.270310	206.375122	168.628693
202.322739	213.165283	166.358948
202.375168	216.655731	153.942108
202.427597	215.091705	165.100098
202.480026	177.383423	152.740479
202.532454	217.761993	174.617767
202.584883	208.511353	151.748657
202.637312	221.881866	181.217194
202.689741	201.492310	140.857697
202.742170	188.884735	170.078278
202.794598	190.277100	169.677734
202.847027	201.816559	190.219879
202.899456	198.497772	161.724091
202.951885	224.494934	192.413330
203.004314	190.467834	152.149200
203.056742	211.677551	162.258148
203.109171	225.296021	198.059082
203.161600	198.936462	162.315369
203.214029	196.800232	153.388977
203.266458	186.691284	157.527924
203.318886	206.470490	171.184540
203.371315	197.906494	170.841217
203.423744	175.952911	169.200897
203.476173	191.001892	154.457092
203.528602	219.612122	190.925598
203.581030	198.726654	151.538849
203.633459	218.181610	186.996460
203.685888	184.040070	158.939362
203.738317	217.876434	181.617737
203.790746	205.440521	169.620514
203.843174	202.407837	160.865784
203.895603	180.721283	161.628723
203.948032	210.094452	147.247314
204.000461	216.674805	173.530579
204.052890	181.083679	165.615082
204.105318	234.012604	207.500458
204.157747	219.440460	168.876648
204.210176	206.565857	165.634155
204.262605	196.514130	164.279938
204.315034	176.448822	160.617828
204.367462	219.192505	167.980194
204.419891	208.702087	180.130005
204.472320	176.162720	146.331787
204.524749	210.914612	189.571381
204.577178	195.388794	160.808563
204.629606	212.650299	177.841187
204.682035	198.802948	174.503326
204.734464	212.001801	170.574188
204.786893	189.647675	159.358978
204.839322	196.189880	163.440704
204.891750	198.020935	154.457092
204.944179	193.023682	180.740356
204.996608	225.257874	154.933929
205.049037	201.549530	158.386230
205.101466	185.203552	154.953003
205.153894	240.020752	188.198090
205.206323	183.715820	163.269043
205.258752	182.304382	164.871216
205.311181	196.743011	171.451569
205.363610	218.505859	169.982910
205.416038	209.655762	174.503326
205.468467	214.977264	186.443329
205.520896	219.383240	180.759430
205.573325	205.173492	182.933807
205.625754	199.966431	177.040100
205.678182	198.059082	166.511536
205.730611	205.841064	182.380676
205.783040	196.151733	174.293518
205.835469	186.462402	165.367126
205.887898	208.873749	167.884827
205.940326	205.821991	158.996582
205.992755	217.838287	175.056458
206.045184	205.745697	174.522400
206.097613	206.813812	177.536011
206.150042	193.767548	153.770447
206.202470	197.334290	151.462555
206.254899	206.317902	155.067444
206.307328	201.416016	141.105652
206.359757	215.492249	179.939270
206.412186	198.116302	161.056519
206.464614	183.391571	148.296356
206.517043	213.966370	173.511505
206.569472	201.091766	166.587830
206.621901	204.391479	159.873962
206.674330	194.625854	170.574188
206.726758	202.674866	166.969299
206.779187	193.157196	157.279968
206.831616	198.783875	161.495209
206.884045	197.010040	151.958466
206.936474	221.042633	164.566040
206.988902	193.271637	166.358948
207.041331	182.113647	166.988373
207.093760	189.323425	157.928467
207.146189	209.941864	163.383484
207.198618	215.377808	169.734955
207.251046	205.688477	148.601532
207.303475	202.274323	178.928375
207.355904	195.026398	156.116486
207.408333	190.219879	153.331757
207.460762	205.230713	160.923004
207.513190	188.369751	170.841217
207.565619	188.426971	168.151855
207.618048	180.759430	155.181885
207.670477	171.947479	158.100128
207.722906	185.585022	167.942047
207.775334	190.219879	157.566071
207.827763	191.993713	183.696747
207.880192	184.574127	159.320831
207.932621	224.075317	194.816589
207.985050	172.004700	172.443390
208.037478	213.165283	146.293640
208.089907	182.323456	159.492493
208.142336	200.481415	161.304474
208.194765	221.652985	183.448792
208.247194	207.386017	167.903900
208.299622	203.418732	157.146454
208.352051	195.102692	160.179138
208.404480	180.892944	158.195496
208.456909	196.094513	167.198181
208.509338	206.756592	173.950195
208.561766	201.873779	196.418762
208.614195	191.955566	177.974701
208.666624	231.952667	165.824890
208.719053	209.865570	154.457092
208.771482	185.890198	165.729523
208.823910	188.121796	164.623260
208.876339	201.568604	171.928406
208.928768	227.184296	178.031921
208.981197	194.988251	177.536011
209.033626	217.456818	167.980194
209.086054	221.500397	167.598724
209.138483	188.941956	174.274445
209.190912	211.086273	166.225433
209.243341	170.078278	167.522430
209.295770	214.366913	159.282684
209.348198	201.740265	157.661438
209.400627	170.974731	166.263580
209.453056	191.402435	166.606903
209.505485	209.884644	169.448853
209.557914	197.696686	151.882172
209.610342	199.565887	171.031952
209.662771	236.968994	171.089172
209.715200	200.862885	154.953003
209.767629	190.792084	163.822174
209.820058	199.069977	187.625885
209.872486	192.565918	154.209137
209.924915	186.882019	165.023804
209.977344	182.113647	152.626038
210.029773	186.843872	149.288177
210.082202	195.484161	155.868530
210.134630	192.756653	173.530579
210.187059	185.413361	153.160095
210.239488	192.146301	176.601410
210.291917	196.876526	164.585114
210.344346	210.170746	158.214569
210.396774	179.901123	153.102875
210.449203	209.255219	170.574188
210.501632	179.977417	146.942139
210.554061	201.683044	163.249969
210.606490	198.516846	155.143738
210.658918	202.598572	157.623291
210.711347	187.149048	160.636902
210.763776	217.399597	164.394379
210.816205	193.557739	177.383423
210.868634	200.595856	166.263580
210.921062	184.288025	144.348145
210.973491	208.530426	156.192780
211.025920	207.958221	184.307098
211.078349	197.925568	174.503326
211.130778	200.309753	181.770325
211.183206	210.189819	172.996521
211.235635	208.244324	158.424377
211.288064	221.862793	168.857574
211.340493	198.383331	174.884796
211.392922	162.277222	161.819458
211.445350	214.252472	160.541534
211.497779	197.849274	164.775848
211.550208	199.241638	166.015625
211.602637	185.203552	153.427124
211.655066	199.165344	161.075592
211.707494	221.519470	181.179047
211.759923	205.345154	183.181763
211.812352	193.138123	180.244446
211.864781	221.939087	169.525146
211.917210	204.601288	154.094696
211.969638	194.625854	133.895874
212.022067	207.176208	165.405273
212.074496	199.584961	157.508850
212.126925	204.524994	183.677673
212.179354	202.484131	148.830414
212.231782	204.029083	194.034576
212.284211	202.407837	155.124664
212.336640	191.249847	152.416229
212.389069	219.116211	186.290741
212.441498	195.674896	174.961090
212.493926	212.955475	162.448883
212.546355	195.789337	187.244415
212.598784	200.939178	172.786713
212.651213	197.734833	165.500641
212.703642	207.920074	166.034698
212.756070	168.800354	154.628754
212.808499	171.947479	166.130066
212.860928	205.097198	157.546997
212.913357	178.127289	168.857574
212.965786	193.367004	150.794983
213.018214	188.903809	174.827576
213.070643	183.887482	177.078247
213.123072	220.909119	174.827576
213.175501	205.745697	192.985535
213.227930	180.473328	152.969360
213.280358	199.680328	175.037384
213.332787	193.691254	173.587799
213.385216	205.631256	181.922913
213.437645	208.950043	158.424377
213.490074	202.102661	153.846741
213.542502	209.045410	159.053802
213.594931	194.168091	158.462524
213.647360	197.906494	161.838531
213.699789	187.206268	158.195496
213.752218	199.184418	140.686035
213.804646	195.541382	169.677734
213.857075	184.745789	162.258148
213.909504	157.680511	149.116516
213.961933	184.383392	160.961151
214.014362	192.184448	166.931152
214.066790	190.677643	134.105682
214.119219	191.497803	166.358948
214.171648	223.960876	185.470581
214.224077	220.985413	177.497864
214.276506	233.669281	199.718475
214.328934	208.454132	166.435242
214.381363	189.495087	180.225372
214.433792	209.007263	189.056396
214.486221	183.506012	186.920166
214.538650	209.236145	169.029236
214.591078	211.868286	171.298981
214.643507	213.642120	173.721313
214.695936	193.347931	159.645081
214.748365	203.170776	161.895752
214.800794	194.149017	162.982941
214.853222	202.865601	153.503418
214.905651	192.680359	171.279907
214.958080	182.571411	167.713165
215.010509	187.301636	157.985687
215.062938	179.557800	167.427063
215.115366	170.001984	148.067474
215.167795	177.974701	162.734985
215.220224	200.634003	170.154572
215.272653	200.653076	176.715851
215.325082	200.519562	145.435333
215.377510	182.266235	165.748596
215.429939	193.519592	186.233521
215.482368	219.593048	180.091858
215.534797	226.993561	210.456848
215.587226	218.582153	194.168091
215.639654	196.990967	180.110931
215.692083	185.699463	161.647797
215.744512	200.538635	156.421661
215.796941	214.252472	178.070068
215.849370	217.666626	194.988251
215.901798	229.682922	173.530579
215.954227	232.143402	178.489685
216.006656	212.097168	170.497894
216.059085	211.639404	152.301788
216.111514	179.786682	154.399872
216.163942	176.639557	175.247192
216.216371	209.293365	173.110962
216.268800	188.388824	176.410675
216.321229	202.426910	150.928497
216.373658	205.249786	184.230804
216.426086	217.628479	160.522461
216.478515	212.593079	165.939331
216.530944	199.661255	154.533386
216.583373	183.563232	141.468048
216.635802	212.593079	172.119141
216.688230	204.811096	180.416107
216.740659	194.835663	158.691406
216.793088	202.484131	164.604187
216.845517	227.069855	170.097351
216.897946	214.805603	161.743164
216.950374	197.849274	174.560547
217.002803	165.996552	164.432526
217.055232	196.857452	170.040131
217.107661	201.988220	156.745911
217.160090	196.723938	159.778595
217.212518	192.108154	176.429749
217.264947	183.048248	170.402527
217.317376	190.830231	154.457092
217.369805	218.620300	148.754120
217.422234	198.497772	162.887573
217.474662	211.257935	186.557770
217.527091	188.846588	145.969391
217.579520	198.802948	177.917480
217.631949	200.004578	167.617798
217.684378	175.189972	169.029236
217.736806	202.827454	167.961121
217.789235	198.841095	161.628723
217.841664	188.808441	140.647888
217.894093	205.078125	174.007416
217.946522	181.007385	157.222748
217.998950	201.396942	147.857666
218.051379	195.198059	175.132751
218.103808	179.767609	141.105652
218.156237	198.688507	167.102814
218.208666	169.639587	174.484253
218.261094	187.702179	156.955719
218.313523	207.920074	168.743134
218.365952	169.639587	164.756775
218.418381	190.105438	160.903931
218.470810	220.146179	185.050964
218.523238	185.604095	168.304443
218.575667	222.110748	166.130066
218.628096	173.034668	163.650513
218.680525	187.435150	150.566101
218.732954	198.707581	148.086548
218.785382	208.072662	175.514221
218.837811	207.023621	160.655975
218.890240	199.260712	175.685883
218.942669	186.595917	164.546967
218.995098	203.418732	179.080963
219.047526	182.437897	185.604095
219.099955	192.985535	153.999329
219.152384	182.723999	181.636810
219.204813	217.533112	170.841217
219.257242	216.560364	167.198181
219.309670	205.116272	165.348053
219.362099	213.394165	171.813965
219.414528	206.947327	176.372528
219.466957	194.816589	168.418884
219.519386	208.549500	176.353455
219.571814	210.762024	171.089172
219.624243	189.609528	173.397064
219.676672	223.770142	162.181854
219.729101	196.704865	163.326263
219.781530	197.257996	179.538727
219.833958	217.590332	181.446075
219.886387	188.255310	145.549774
219.938816	181.541443	161.972046
219.991245	203.361511	158.920288
220.043674	206.031799	160.484314
220.096102	173.435211	158.367157
220.148531	196.762085	166.587830
220.200960	188.312531	157.947540
220.253389	195.007324	177.459717
220.305818	220.832825	177.326202
220.358246	209.636688	161.705017
220.410675	214.042664	187.320709
220.463104	205.497742	151.081085
220.515533	201.625824	170.898437
220.567962	227.355957	190.582275
220.620390	187.129974	139.331818
220.672819	197.029114	178.470612
220.725248	189.876556	179.519653
220.777677	212.936401	167.713165
220.830106	210.990906	163.326263
220.882534	192.871094	166.625977
220.934963	186.004639	176.887512
220.987392	208.377838	185.146332
221.039821	196.342468	169.200897
221.092250	207.595825	181.827545
221.144678	222.988129	171.375275
221.197107	187.759399	148.067474
221.249536	193.462372	172.519684
221.301965	209.903717	167.522430
221.354394	185.050964	158.672333
221.406822	209.064484	179.786682
221.459251	193.614960	179.347992
221.511680	190.944672	149.497986
221.564109	179.004669	149.478912
221.616538	191.535950	161.247253
221.668966	195.426941	165.538788
221.721395	197.772980	162.830353
221.773824	208.835602	169.963837
221.826253	207.271576	176.582336
221.878682	219.898224	173.377991
221.931110	211.696625	168.609619
221.983539	200.729370	177.745819
222.035968	190.601349	151.157379
222.088397	189.056396	157.451630
222.140826	202.941895	149.555206
222.193254	201.110840	159.225464
222.245683	180.034637	153.026581
222.298112	210.895538	175.895691
222.350541	179.233551	165.996552
222.402970	182.895660	174.522400
222.455398	205.230713	173.988342
222.507827	192.813873	157.852173
222.560256	194.530487	138.893127
222.612685	206.146240	185.394287
222.665114	204.048157	153.579712
222.717542	199.375153	169.601440
222.769971	185.203552	165.882111
222.822400	186.748505	152.854919
222.874829	202.560425	174.160004
222.927258	205.993652	175.933838
222.979686	204.296112	156.478882
223.032115	181.846619	159.130096
223.084544	216.217041	167.922974
223.136973	193.557739	159.835815
223.189402	187.816620	171.546936
223.241830	215.148926	166.530609
223.294259	193.195343	149.288177
223.346688	207.805634	173.187256
223.399117	194.129944	155.315399
223.451546	199.794769	181.636810
223.503974	204.105377	172.214508
223.556403	199.661255	160.331726
223.608832	201.549530	166.149139
223.661261	205.001831	155.029297
223.713690	173.149109	155.715942
223.766118	209.159851	167.961121
223.818547	207.080841	162.658691
223.870976	209.045410	173.511505
223.923405	203.227997	158.462524
223.975834	178.279877	150.547028
224.028262	211.410522	168.571472
224.080691	181.236267	168.228149
224.133120	175.151825	148.639679
224.185549	187.339783	184.612274
224.237978	189.170837	162.467957
224.290406	192.604065	163.879395
224.342835	206.756592	173.015594
224.395264	204.486847	158.653259
224.447693	173.358917	143.928528
224.500122	220.546722	161.762238
224.552550	199.146271	179.767609
224.604979	199.508667	149.707794
224.657408	215.415955	168.266296
224.709837	223.064423	178.661346
224.762266	188.884735	151.901245
224.814694	205.478668	150.070190
224.867123	206.050873	171.756744
224.919552	197.372437	165.519714
224.971981	190.963745	173.511505
225.024410	209.445953	192.890167
225.076838	189.037323	156.879425
225.129267	194.225311	152.416229
225.181696	204.811096	172.691345
225.234125	208.091736	169.334412
225.286554	213.203430	192.832947
225.338982	184.535980	173.301697
225.391411	222.053528	174.541473
225.443840	201.435089	176.448822
225.496269	201.511383	149.745941
225.548698	206.794739	151.004791
225.601126	180.606842	148.220062
225.653555	197.772980	157.127380
225.705984	218.772888	160.617828
225.758413	182.514191	157.413483
225.810842	217.914581	190.181732
225.863270	194.683075	140.266418
225.915699	210.132599	180.892944
225.968128	190.238953	170.783997
226.020557	182.456970	151.424408
226.072986	203.456879	176.773071
226.125414	184.593201	191.249847
226.177843	207.729340	183.296204
226.230272	189.647675	165.596008
226.282701	188.083649	148.239136
226.335130	184.917450	177.631378
226.387558	170.078278	154.361725
226.439987	192.871094	154.209137
226.492416	191.860199	157.146454
226.544845	188.312531	174.789429
226.597274	180.797577	155.925751
226.649702	208.683014	185.928345
226.702131	205.860138	170.917511
226.754560	184.059143	169.963837
226.806989	185.642242	177.135468
226.859418	211.811066	198.421478
226.911846	206.832886	177.631378
226.964275	178.527832	184.669495
227.016704	213.470459	161.781311
227.069133	211.982727	161.514282
227.121562	234.088898	178.089142
227.173990	195.484161	145.301819
227.226419	181.179047	162.296295
227.278848	181.655884	175.743103
227.331277	210.781097	164.165497
227.383706	185.298920	147.209167
227.436134	204.601288	169.963837
227.488563	175.704956	148.200989
227.540992	196.762085	193.595886
227.593421	190.963745	171.394348
227.645850	180.759430	160.694122
227.698278	184.020996	155.963898
227.750707	215.053558	182.094574
227.803136	167.446136	138.225555
227.855565	222.434998	177.497864
227.907994	192.070007	161.151886
227.960422	200.576782	175.704956
228.012851	192.470551	186.538696
228.065280	202.541351	182.781219
228.117709	223.484039	192.165375
228.170138	211.105347	192.661285
228.222566	218.105316	169.296265
228.274995	208.454132	185.966492
228.327424	220.966339	184.326172
228.379853	202.083588	160.560608
228.432282	191.059113	161.418915
228.484710	209.465027	181.064606
228.537139	224.266052	176.029205
228.589568	207.672119	167.503357
228.641997	191.841125	167.942047
228.694426	179.805756	148.334503
228.746854	199.756622	147.514343
228.799283	234.718323	186.710358
228.851712	206.890106	166.492462
228.904141	227.108002	175.132751
228.956570	202.217102	175.418854
229.008998	194.187164	157.070160
229.061427	205.326080	182.552338
229.113856	193.061829	157.165527
229.166285	202.884674	168.571472
229.218714	226.001740	175.437927
229.271142	197.563171	181.865692
229.323571	176.677704	180.301666
229.376000	209.999084	156.993866
229.428429	211.772919	174.198151
229.480858	192.356110	158.843994
229.533286	224.761963	178.585052
229.585715	212.516785	164.375305
229.638144	215.663910	170.841217
229.690573	196.056366	147.266388
229.743002	186.252594	158.157349
229.795430	233.554840	160.884857
229.847859	225.753784	162.658691
229.900288	197.620392	152.359009
229.952717	203.552246	182.361603
230.005146	193.061829	172.843933
230.057574	207.271576	165.691376
230.110003	185.241699	147.304535
230.162432	211.200714	162.467957
230.214861	228.519440	159.053802
230.267290	221.538544	178.604126
230.319718	199.928284	160.903931
230.372147	192.661285	158.519745
230.424576	221.271515	167.388916
230.477005	206.966400	157.203674
230.529434	202.178955	187.072754
230.581862	236.282349	168.647766
230.634291	196.800232	163.860321
230.686720	214.443207	156.784058
230.739149	184.249878	158.920288
230.791578	176.124573	150.146484
230.844006	211.544037	169.887543
230.896435	211.830139	167.160034
230.948864	191.516876	158.081055
231.001293	218.029022	166.702271
231.053722	187.797546	154.514313
231.106150	205.917358	161.952972
231.158579	193.214417	155.448914
231.211008	208.301544	180.912018
231.263437	193.939209	203.475952
231.315866	208.301544	172.939301
231.368294	200.386047	193.767548
231.420723	205.745697	161.266327
231.473152	205.497742	168.704987
231.525581	177.001953	144.424438
231.578010	200.195312	167.140961
231.630438	190.296173	183.048248
231.682867	220.184326	170.555115
231.735296	191.059113	180.377960
231.787725	192.604065	161.972046
231.840154	195.674896	162.906647
231.892582	199.527740	177.822113
231.945011	193.004608	178.775787
231.997440	210.342407	175.971985
232.049869	192.565918	140.361786
232.102298	195.541382	164.260864
232.154726	194.377899	155.658722
232.207155	189.762115	179.615021
232.259584	177.516937	163.803101
232.312013	198.135376	163.879395
232.364442	189.857483	169.487000
232.416870	201.168060	156.574249
232.469299	187.053680	162.792206
232.521728	202.655792	162.143707
232.574157	239.505768	181.255341
232.626586	190.086365	143.222809
232.679014	210.113525	188.674927
232.731443	205.974579	164.337158
232.783872	203.704834	152.397156
232.836301	192.337036	151.176453
232.888730	213.127136	171.852112
232.941158	196.723938	162.048340
232.993587	213.699341	174.560547
233.046016	200.424194	176.639557
233.098445	201.320648	184.650421
233.150874	220.985413	186.595917
233.203302	213.718414	182.170868
233.255731	220.108032	190.639496
233.308160	205.345154	200.634003
233.360589	176.162720	172.824860
233.413018	173.740387	174.369812
233.465446	192.470551	172.595978
233.517875	218.410492	155.506134
233.570304	221.042633	165.596008
233.622733	204.277039	170.631409
233.675162	195.789337	159.988403
233.727590	215.663910	174.961090
233.780019	208.530426	163.974762
233.832448	185.642242	177.879333
233.884877	205.860138	172.882080
233.937306	192.279816	170.364380
233.989734	205.860138	164.527893
234.042163	194.301605	159.263611
234.094592	192.584991	186.252594
234.147021	230.140686	168.628693
234.199450	217.742920	167.217255
234.251878	217.552185	160.121918
234.304307	204.849243	156.593323
234.356736	201.969147	166.244507
234.409165	187.416077	156.383514
234.461594	207.500458	159.225464
234.514022	199.127197	161.781311
234.566451	207.786560	166.587830
234.618880	208.339691	171.108246
234.671309	213.336945	156.841278
234.723738	248.394012	184.841156
234.776166	208.206177	183.753967
234.828595	199.031830	184.078217
234.881024	184.593201	161.266327
234.933453	239.944458	191.173553
234.985882	201.263428	167.064667
235.038310	186.576843	172.042847
235.090739	168.094635	152.854919
235.143168	196.838379	175.304413
235.195597	207.328796	167.388916
235.248026	210.418701	175.457001
235.300454	213.413239	169.181824
235.352883	208.072662	158.119202
235.405312	228.443146	175.800323
235.457741	165.977478	147.113800
235.510170	202.045441	169.563293
235.562598	197.734833	176.639557
235.615027	203.361511	182.476044
235.667456	184.764862	156.555176
235.719885	205.993652	173.015594
235.772314	184.707642	148.220062
235.824742	191.555023	169.487000
235.877171	214.900970	178.489685
235.929600	185.012817	169.620514
235.982029	185.317993	172.519684
236.034458	190.258026	156.555176
236.086886	179.462433	164.146423
236.139315	193.481445	162.296295
236.191744	206.680298	153.713226
236.244173	193.786621	157.775879
236.296602	179.862976	158.462524
236.349030	190.029144	173.816681
236.401459	209.617615	159.454346
236.453888	176.734924	164.737701
236.506317	177.669525	152.492523
236.558746	201.530457	169.601440
236.611174	201.759338	184.936523
236.663603	198.421478	158.329010
236.716032	176.029205	160.484314
236.768461	168.571472	160.694122
236.820890	196.571350	166.130066
236.873318	200.157166	169.410706
236.925747	196.189880	157.356262
236.978176	201.034546	159.931183
237.030605	217.151642	177.574158
237.083034	186.309814	158.233643
237.135462	218.868256	181.064606
237.187891	192.985535	151.748657
237.240320	188.560486	164.756775
237.292749	191.707611	148.696899
237.345178	193.443298	164.909363
237.397606	223.121643	181.713104
237.450035	181.522369	155.487061
237.502464	207.881927	164.337158
237.554893	181.465149	168.209076
237.607322	209.903717	162.734985
237.659750	203.704834	172.061920
237.712179	198.249817	185.317993
237.764608	185.337067	157.737732
237.817037	185.527802	168.361664
237.869466	205.116272	163.707733
237.921894	183.238983	164.451599
237.974323	183.620453	157.127380
238.026752	208.263397	156.097412
238.079181	202.140808	155.944824
238.131610	173.683167	153.255463
238.184038	192.928314	176.887512
238.236467	190.563202	160.503387
238.288896	205.402374	160.369873
238.341325	201.301575	174.198151
238.393754	224.285126	158.557892
238.446182	193.862915	153.408051
238.498611	214.328766	151.653290
238.551040	200.653076	167.331696
238.603469	203.456879	165.176392
238.655898	183.277130	165.290833
238.708326	216.140747	165.367126
238.760755	208.282471	173.816681
238.813184	198.745728	158.805847
238.865613	199.642181	171.070099
238.918042	193.901062	170.154572
238.970470	222.702026	170.536041
239.022899	187.015533	164.890289
239.075328	193.386078	152.187347
239.127757	202.884674	155.258179
239.180186	197.582245	167.598724
239.232614	174.922943	160.427094
239.285043	184.249878	160.064697
239.337472	189.723969	154.685974
239.389901	184.097290	151.805878
239.442330	211.162567	173.320770
239.494758	209.655762	171.298981
239.547187	216.064453	187.644958
239.599616	194.225311	151.710510
239.652045	195.617676	163.860321
239.704474	149.116516	146.961212
239.756902	195.350647	164.508820
239.809331	188.808441	150.718689
239.861760	210.056305	166.549683
239.914189	197.696686	184.249878
239.966618	227.642059	174.179077
240.019046	217.304230	165.805817
240.071475	220.985413	172.405243
240.123904	206.241608	179.157257
240.176333	206.699371	173.721313
240.228762	176.792145	151.138306
240.281190	234.584808	196.533203
240.333619	181.369781	157.794952
240.386048	194.072723	185.604095
240.438477	222.492218	202.159882
240.490906	223.827362	170.040131
240.543334	195.751190	164.337158
240.595763	178.318024	167.751312
240.648192	189.018250	142.841339
240.700621	213.508606	153.751373
240.753050	194.473267	169.448853
240.805478	195.865631	160.064697
240.857907	212.669373	172.595978
240.910336	205.135345	173.606873
240.962765	216.999054	158.843994
241.015194	208.263397	177.326202
241.067622	186.080933	155.563354
241.120051	201.072693	158.767700
241.172480	189.952850	153.636932
241.224909	205.783844	189.304352
241.277338	212.650299	171.451569
241.329766	207.138062	147.190094
241.382195	213.890076	168.781281
241.434624	194.683075	168.399811
241.487053	198.554993	167.160034
241.539482	217.723846	178.508759
241.591910	221.099854	195.846558
241.644339	211.181641	134.963989
241.696768	195.236206	157.852173
241.749197	192.337036	186.920166
241.801626	192.298889	160.846710
241.854054	199.069977	165.557861
241.906483	197.868347	166.988373
241.958912	224.800110	172.023773
242.011341	210.037231	167.617798
242.063770	190.601349	166.740417
242.116198	210.132599	144.119263
242.168627	200.653076	161.724091
242.221056	177.249908	153.198242
242.273485	201.931000	168.590546
242.325914	213.737488	158.271790
242.378342	200.614929	167.560577
242.430771	187.702179	168.132782
242.483200	198.612213	165.901184
242.535629	184.612274	152.530670
242.588058	199.451447	153.999329
242.640486	189.933777	173.397064
242.692915	186.424255	168.495178
242.745344	158.462524	156.688690
242.797773	191.841125	149.135590
242.850202	183.181763	159.683228
242.902630	202.617645	171.966553
242.955059	209.026337	184.707642
243.007488	198.154449	176.753998
243.059917	205.669403	168.399811
243.112346	223.159790	165.538788
243.164774	188.865662	172.977448
243.217203	184.478760	150.432587
243.269632	184.841156	182.189941
243.322061	175.666809	162.353516
243.374490	169.296265	154.209137
243.426918	197.372437	173.377991
243.479347	222.759247	180.187225
243.531776	192.337036	163.841248
243.584205	189.037323	151.100159
243.636634	185.909271	164.642334
243.689062	212.879181	194.568634
243.741491	198.421478	174.674988
243.793920	194.702148	177.574158
243.846349	201.148987	177.001953
243.898778	200.996399	150.794983
243.951206	211.486816	165.843964
244.003635	174.732208	144.348145
244.056064	198.116302	155.582428
244.108493	188.426971	158.195496
244.160922	192.604065	188.579559
244.213350	210.571289	181.198120
244.265779	213.947296	180.969238
244.318208	184.211731	168.018341
244.370637	202.655792	164.947510
244.423066	211.086273	164.070129
244.475494	178.508759	186.080933
244.527923	193.176270	154.991150
244.580352	234.508514	155.754089
244.632781	226.020813	164.813995
244.685210	169.696808	162.582397
244.737638	210.990906	158.195496
244.790067	202.064514	173.664093
244.842496	210.895538	162.563324
244.894925	192.489624	171.966553
244.947354	200.996399	168.800354
244.999782	202.732086	172.882080
245.052211	214.767456	169.067383
245.104640	224.876404	171.508789
245.157069	212.306976	182.209015
245.209498	206.775665	187.282562
245.261926	209.846497	177.135468
245.314355	207.748413	173.625946
245.366784	180.358887	150.890350
245.419213	207.099915	186.443329
245.471642	206.470490	169.448853
245.524070	187.339783	144.958496
245.576499	195.693970	173.816681
245.628928	183.506012	144.100189
245.681357	205.020905	171.432495
245.733786	200.767517	166.358948
245.786214	192.527771	161.228180
245.838643	196.018219	150.814056
245.891072	210.418701	171.871185
245.943501	197.048187	170.955658
245.995930	172.939301	142.841339
246.048358	208.530426	185.413361
246.100787	214.977264	171.394348
246.153216	206.451416	171.871185
246.205645	183.467865	147.495270
246.258074	209.312439	181.770325
246.310502	195.140839	167.026520
246.362931	212.440491	174.446106
246.415360	204.219818	180.435181
246.467789	175.113678	164.890289
246.520218	214.653015	171.947479
246.572646	188.369751	161.514282
246.625075	218.658447	171.585083
246.677504	203.285217	161.590576
246.729933	182.857513	158.939362
246.782362	222.263336	172.805786
246.834790	196.037292	157.947540
246.887219	216.579437	164.089203
246.939648	200.099945	165.729523
246.992077	175.457001	145.893097
247.044506	204.238892	174.636841
247.096934	199.584961	162.792206
247.149363	193.386078	175.056458
247.201792	232.295990	170.059204
247.254221	188.331604	157.279968
247.306650	231.323242	158.958435
247.359078	216.388702	176.620483
247.411507	183.086395	168.285370
247.463936	191.974640	156.726837
247.516365	202.808380	156.955719
247.568794	186.157227	162.162781
247.621222	190.067291	176.792145
247.673651	187.206268	171.375275
247.726080	191.383362	195.636749
247.778509	186.996460	157.070160
247.830938	185.928345	145.721436
247.883366	205.287933	149.478912
247.935795	211.105347	166.530609
247.988224	183.906555	156.497955
248.040653	184.936523	162.429810
248.093082	204.925537	160.331726
248.145510	211.620331	163.116455
248.197939	202.407837	164.794922
248.250368	201.816559	155.982971
248.302797	189.151764	154.113770
248.355226	230.941772	168.418884
248.407654	209.884644	170.040131
248.460083	200.462341	159.816742
248.512512	207.805634	175.189972
248.564941	187.511444	168.724060
248.617370	192.127228	161.056519
248.669798	191.383362	149.269104
248.722227	190.715790	159.530640
248.774656	193.653107	175.094604
248.827085	219.993591	159.187317
248.879514	186.271667	162.925720
248.931942	221.042633	176.963806
248.984371	211.353302	195.350647
249.036800	192.012787	150.012970
249.089229	188.331604	164.527893
249.141658	208.091736	175.666809
249.194086	232.658386	174.751282
249.246515	205.764771	153.598785
249.298944	189.666748	178.089142
249.351373	186.233521	154.609680
249.403802	201.110840	172.271729
249.456230	177.841187	150.947571
249.508659	208.225250	163.516998
249.561088	229.606628	191.574097
249.613517	208.415985	162.487030
249.665946	223.045349	174.598694
249.718374	190.353394	185.241699
249.770803	208.854675	166.454315
249.823232	206.813812	183.429718
249.875661	215.148926	167.217255
249.928090	206.165314	183.563232
249.980518	192.680359	165.805817
250.032947	178.279877	151.100159
250.085376	228.614807	175.285339
250.137805	195.102692	163.459778
250.190234	179.996490	176.467896
250.242662	213.947296	183.963776
250.295091	186.443329	151.176453
250.347520	214.366913	174.942017
250.399949	188.388824	168.018341
250.452378	204.105377	167.541504
250.504806	188.522339	160.598755
250.557235	161.857605	139.369965
250.609664	180.912018	162.754059
250.662093	185.050964	177.688599
250.714522	179.862976	157.394409
250.766950	203.247070	157.203674
250.819379	197.391510	162.715912
250.871808	184.955597	165.195465
250.924237	200.691223	191.135406
250.976666	213.947296	157.814026
251.029094	186.443329	156.002045
251.081523	172.519684	151.233673
251.133952	201.339722	178.794861
251.186381	200.195312	155.448914
251.238810	213.088989	177.345276
251.291238	203.781128	158.424377
251.343667	199.909210	161.056519
251.396096	203.895569	161.800385
251.448525	210.762024	182.132721
251.500954	200.595856	155.048370
251.553382	197.544098	167.293549
251.605811	209.178925	154.552460
251.658240	183.238983	170.612335
251.710669	186.824799	171.051025
251.763098	191.688538	158.576965
251.815526	203.609467	162.010193
251.867955	221.557617	157.546997
251.920384	207.633972	197.257996
251.972813	176.372528	163.688660
252.025242	208.244324	197.257996
252.077670	218.238831	183.010101
252.130099	222.969055	186.042786
252.182528	178.222656	163.536072
252.234957	203.132629	165.939331
252.287386	193.710327	166.683197
252.339814	209.007263	173.549652
252.392243	200.729370	171.051025
252.444672	205.535889	154.151917
252.497101	197.830200	174.083710
252.549530	197.448730	151.901245
252.601958	173.530579	136.814117
252.654387	208.187103	182.762146
252.706816	205.154419	163.860321
252.759245	192.337036	167.312622
252.811674	197.486877	151.290894
252.864102	185.852051	162.963867
252.916531	194.473267	144.329071
252.968960	213.642120	167.217255
253.021389	200.290680	171.337128
253.073818	198.040009	161.533356
253.126246	232.276917	177.230835
253.178675	205.287933	169.792175
253.231104	194.740295	180.282593
253.283533	197.792053	174.255371
253.335962	205.898285	137.710571
253.388390	206.794739	173.549652
253.440819	210.437775	154.781342
253.493248	193.271637	177.249908
253.545677	212.783813	168.952942
253.598106	198.211670	161.857605
253.650534	208.396912	184.860229
253.702963	175.590515	159.244537
253.755392	208.282471	167.369843
253.807821	203.113556	177.268982
253.860250	229.148865	176.811218
253.912678	202.503204	183.486938
253.965107	211.124420	166.893005
254.017536	207.633972	168.514252
254.069965	199.565887	161.666870
254.122394	189.914703	169.067383
254.174822	189.838409	143.775940
254.227251	189.990997	164.165497
254.279680	194.034576	170.936584
254.332109	185.298920	187.702179
254.384538	191.993713	175.704956
254.436966	196.132660	174.751282
254.489395	225.696564	176.506042
254.541824	187.683105	153.274536
254.594253	192.451477	153.121948
254.646682	219.345093	178.165436
254.699110	199.794769	170.249939
254.751539	198.440552	196.456909
254.803968	203.342438	168.991089
254.856397	225.811005	185.146332
254.908826	203.018188	166.931152
254.961254	196.151733	150.833130
255.013683	223.503113	194.797516
255.066112	208.435059	167.427063
255.118541	213.356018	196.609497
255.170970	199.489594	155.715942
255.223398	202.274323	175.933838
255.275827	229.530334	177.192688
255.328256	191.535950	165.805817
255.380685	230.178833	179.786682
255.433114	198.860168	181.083679
255.485542	208.339691	171.813965
255.537971	204.601288	174.770355
255.590400	227.775574	179.214478
255.642829	228.900909	165.195465
255.695258	192.871094	172.824860
255.747686	206.394196	166.034698
255.800115	209.827423	172.252655
255.852544	196.418762	178.089142
255.904973	221.481323	189.189911
255.957402	213.985443	182.342529
256.009830	193.462372	167.427063
256.062259	186.653137	181.808472
256.114688	196.151733	173.702240
256.167117	192.718506	162.162781
256.219546	207.538605	168.914795
256.271974	169.239044	161.609650
256.324403	170.459747	148.010254
256.376832	206.680298	168.914795
256.429261	191.802979	146.121979
256.481690	197.143555	166.473389
256.534118	197.582245	161.647797
256.586547	205.020905	173.854828
256.638976	195.083618	152.149200
256.691405	204.734802	161.304474
256.743834	214.958191	153.446198
256.796262	210.590363	165.309906
256.848691	209.178925	144.920349
256.901120	161.685944	157.432556
256.953549	198.879242	153.617859
257.005978	208.721161	185.050964
257.058406	189.914703	163.631439
257.110835	230.445862	191.707611
257.163264	196.342468	173.091888
257.215693	180.854797	160.274506
257.268122	215.377808	166.816711
257.320550	176.239014	162.944794
257.372979	194.683075	165.767670
257.425408	220.718384	172.882080
257.477837	211.067200	176.467896
257.530266	198.307037	167.179108
257.582694	175.056458	164.489746
257.635123	176.410675	161.628723
257.687552	197.448730	165.519714
257.739981	199.890137	181.407928
257.792410	182.800293	151.805878
257.844838	195.331573	181.121826
257.897267	188.789368	165.386200
257.949696	210.742950	160.312653
258.002125	184.993744	173.282623
258.054554	209.026337	186.405182
258.106982	177.040100	155.315399
258.159411	222.816467	187.625885
258.211840	183.773041	190.048218
258.264269	183.925629	156.650543
258.316698	195.522308	169.448853
258.369126	214.138031	169.677734
258.421555	214.805603	187.759399
258.473984	187.969208	150.146484
258.526413	204.925537	152.664185
258.578842	193.176270	171.661377
258.631270	191.421509	156.288147
258.683699	234.355927	165.786743
258.736128	206.127167	184.936523
258.788557	201.892853	167.388916
258.840986	195.388794	152.187347
258.893414	179.653168	153.980255
258.945843	180.950165	149.536133
258.998272	221.347809	163.974762
259.050701	189.247131	157.985687
259.103130	197.162628	181.045532
259.155558	178.031921	166.778564
259.207987	208.644867	166.492462
259.260416	200.500488	154.571533
259.312845	203.762054	176.963806
259.365274	197.353363	179.138184
259.417702	191.364288	161.209106
259.470131	184.173584	164.432526
259.522560	204.086304	162.982941
259.574989	189.704895	175.304413
259.627418	209.617615	159.835815
259.679846	203.018188	171.375275
259.732275	193.271637	151.767731
259.784704	203.437805	154.266357
259.837133	206.336975	166.301727
259.889562	207.080841	167.694092
259.941990	187.892914	164.813995
259.994419	184.783936	145.721436
260.046848	191.745758	145.339966
260.099277	194.931030	158.843994
260.151706	191.364288	171.298981
260.204134	202.236176	189.819336
260.256563	211.563110	164.966583
260.308992	203.819275	161.914825
260.361421	194.740295	150.794983
260.413850	180.873871	161.800385
260.466278	204.162598	169.925690
260.518707	201.873779	144.691467
260.571136	201.663971	174.789429
260.623565	199.871063	164.337158
260.675994	216.140747	165.138245
260.728422	226.478577	174.026489
260.780851	222.969055	161.685944
260.833280	187.931061	165.119171
260.885709	233.287811	170.116425
260.938138	209.693909	171.661377
260.990566	193.634033	161.018372
261.042995	191.574097	152.702332
261.095424	218.048096	164.604187
261.147853	217.266083	165.367126
261.200282	185.985565	154.685974
261.252710	206.966400	156.536102
261.305139	204.029083	151.844025
261.357568	212.898254	168.113708
261.409997	205.059052	172.538757
261.462426	198.097229	160.655975
261.514854	203.666687	193.843842
261.567283	201.110840	146.961212
261.619712	217.609406	168.972015
261.672141	194.778442	138.797760
261.724570	212.631226	165.576935
261.776998	201.530457	164.012909
261.829427	219.135284	187.644958
261.881856	212.593079	153.808594
261.934285	191.822052	160.484314
261.986714	195.140839	166.912079
262.039142	201.530457	163.822174
262.091571	217.781067	176.506042
262.144000	203.781128	155.754089
262.196429	213.470459	156.555176
262.248858	183.029175	154.685974
262.301286	217.418671	163.612366
262.353715	187.625885	163.955688
262.406144	225.028992	149.135590
262.458573	192.317963	149.459839
262.511002	192.718506	178.565979
262.563430	191.917419	153.179169
262.615859	203.132629	164.566040
262.668288	179.233551	166.397095
262.720717	195.426941	162.143707
262.773146	207.843781	176.105499
262.825574	197.486877	159.320831
262.878003	205.783844	195.446014
262.930432	202.465057	169.811249
262.982861	206.909180	171.508789
263.035290	186.500549	167.293549
263.087718	182.514191	159.149170
263.140147	208.377838	162.506104
263.192576	213.451385	156.211853
263.245005	211.772919	183.238983
263.297434	170.936584	137.557983
263.349862	180.950165	158.290863
263.402291	202.960968	177.383423
263.454720	201.301575	163.459778
263.507149	215.301514	176.506042
263.559578	202.617645	163.326263
263.612006	182.266235	154.647827
263.664435	194.110870	168.972015
263.716864	190.677643	143.108368
263.769293	195.503235	189.228058
263.821722	210.800171	167.198181
263.874150	181.083679	156.593323
263.926579	204.467773	170.249939
263.979008	194.988251	184.555054
264.031437	191.955566	174.484253
264.083866	192.508698	179.729462
264.136294	185.680389	168.170929
264.188723	206.394196	158.500671
264.241152	197.677612	176.906586
264.293581	209.369659	167.083740
264.346010	210.704803	162.773132
264.398438	205.059052	170.974731
264.450867	187.873840	173.034668
264.503296	196.857452	157.051086
264.555725	178.604126	167.465210
264.608154	227.699280	161.132812
264.660582	200.557709	156.536102
264.713011	196.723938	169.067383
264.765440	214.252472	172.901154
264.817869	204.734802	170.612335
264.870298	186.538696	147.304535
264.922726	209.560394	162.925720
264.975155	187.644958	154.972076
265.027584	221.939087	177.936554
265.080013	204.696655	175.380707
265.132442	215.339661	175.857544
265.184870	198.249817	172.233582
265.237299	202.903748	154.170990
265.289728	216.464996	171.890259
265.342157	213.794708	175.685883
265.394586	195.922852	164.051056
265.447014	171.432495	161.609650
265.499443	183.429718	165.576935
265.551872	182.170868	150.299072
265.604301	186.538696	181.159973
265.656730	194.244385	159.683228
265.709158	190.162659	161.743164
265.761587	194.339752	180.454254
265.814016	188.350677	160.655975
265.866445	186.214447	167.922974
265.918874	193.748474	159.091949
265.971302	193.843842	165.557861
266.023731	192.947388	169.773102
266.076160	196.094513	160.427094
266.128589	202.693939	168.895721
266.181018	234.394073	189.971924
266.233446	203.342438	176.334381
266.285875	195.865631	173.606873
266.338304	207.099915	160.808563
266.390733	194.854736	177.230835
266.443162	209.445953	153.846741
266.495590	198.669434	159.091949
266.548019	208.892822	171.089172
266.600448	188.617706	153.713226
266.652877	207.347870	162.105560
266.705306	194.721222	145.530701
266.757734	192.260742	161.800385
266.810163	192.279816	149.669647
266.862592	189.514160	166.721344
266.915021	206.851959	166.606903
266.967450	209.388733	156.154633
267.019878	181.274414	162.296295
267.072307	208.587646	150.165558
267.124736	213.260651	171.337128
267.177165	214.328766	178.127289
267.229594	185.794830	173.187256
267.282022	194.244385	158.805847
267.334451	194.053650	148.868561
267.386880	186.195374	187.435150
267.439309	190.582275	165.843964
267.491738	208.396912	164.947510
267.544166	233.173370	164.108276
267.596595	207.080841	175.151825
267.649024	204.906464	160.140991
267.701453	194.396973	173.606873
267.753882	182.952881	173.435211
267.806310	168.170929	151.748657
267.858739	188.598633	172.443390
267.911168	188.426971	176.696777
267.963597	189.857483	161.018372
268.016026	219.459534	152.759552
268.068454	204.105377	159.606934
268.120883	212.879181	159.454346
268.173312	183.200836	158.176422
268.225741	194.835663	170.555115
268.278170	200.958252	162.487030
268.330598	185.680389	156.555176
268.383027	239.772797	161.609650
268.435456	195.388794	152.645111
268.487885	193.805695	178.909302
268.540314	209.255219	154.972076
268.592742	206.394196	166.873932
268.645171	210.380554	167.121887
268.697600	197.486877	180.664062
268.750029	189.743042	160.903931
268.802458	200.672150	169.162750
268.854886	192.127228	149.955750
268.907315	210.723877	160.140991
268.959744	221.424103	193.843842
269.012173	192.070007	158.615112
269.064602	188.808441	171.375275
269.117030	204.944611	157.794952
269.169459	201.072693	153.369904
269.221888	199.699402	155.124664
269.274317	207.939148	174.751282
269.326746	221.424103	168.285370
269.379174	223.903656	174.179077
269.431603	201.530457	170.917511
269.484032	178.508759	159.626007
269.536461	230.865479	173.034668
269.588890	226.249695	172.767639
269.641318	196.704865	195.007324
269.693747	209.674835	152.626038
269.746176	208.816528	167.808533
269.798605	189.666748	167.751312
269.851034	200.653076	166.835785
269.903462	200.347900	194.606781
269.955891	204.830170	181.026459
270.008320	195.388794	164.222717
270.060749	197.143555	182.151794
270.113178	200.824738	183.219910
270.165606	187.759399	150.871277
270.218035	204.143524	157.432556
270.270464	181.980133	159.721375
270.322893	216.217041	163.440704
270.375322	211.315155	172.672272
270.427750	235.195160	185.909271
270.480179	169.048309	159.816742
270.532608	176.944733	155.544281
270.585037	204.410553	163.650513
270.637466	192.317963	182.933807
270.689894	201.511383	169.372559
270.742323	182.094574	166.091919
270.794752	218.753815	166.721344
270.847181	160.541534	147.476196
270.899610	199.623108	166.473389
270.952038	197.830200	171.585083
271.004467	226.364136	165.252686
271.056896	195.274353	152.854919
271.109325	189.170837	172.233582
271.161754	202.674866	157.432556
271.214182	179.882050	156.192780
271.266611	238.399506	163.326263
271.319040	205.745697	187.244415
271.371469	238.914490	171.718597
271.423898	193.557739	155.982971
271.476326	212.364197	193.271637
271.528755	203.723907	162.963867
271.581184	163.841248	146.942139
271.633613	180.130005	151.767731
271.686042	210.914612	175.342560
271.738470	177.688599	169.906616
271.790899	190.811157	173.206329
271.843328	186.939240	172.519684
271.895757	214.080811	176.467896
271.948186	193.519592	160.236359
272.000614	195.732117	164.680481
272.053043	191.688538	180.835724
272.105472	192.432404	177.230835
272.157901	189.075470	173.015594
272.210330	186.271667	152.797699
272.262758	217.094421	195.407867
272.315187	193.004608	180.110931
272.367616	195.713043	157.794952
272.420045	183.925629	163.860321
272.472474	209.846497	168.704987
272.524902	212.993622	173.606873
272.577331	216.064453	185.394287
272.629760	180.740356	151.214600
272.682189	209.178925	159.301758
272.734618	194.587708	156.307220
272.787046	190.792084	176.677704
272.839475	177.307129	161.190033
272.891904	218.734741	188.617706
272.944333	193.767548	175.094604
272.996762	188.827515	176.277161
273.049190	186.882019	169.391632
273.101619	213.680267	175.971985
273.154048	188.694000	163.135529
273.206477	191.612244	165.691376
273.258906	186.614990	171.127319
273.311334	224.342346	177.955627
273.363763	215.816498	173.721313
273.416192	203.819275	157.546997
273.468621	192.756653	176.239014
273.521050	206.069946	164.642334
273.573478	197.067261	175.781250
273.625907	195.178986	182.857513
273.678336	187.988281	187.969208
273.730765	175.437927	165.195465
273.783194	194.797516	160.923004
273.835622	191.669464	165.386200
273.888051	224.075317	169.105530
273.940480	191.287994	177.745819
273.992909	192.260742	176.715851
274.045338	214.595795	172.271729
274.097766	195.293427	167.350769
274.150195	172.557831	155.487061
274.202624	163.784027	154.113770
274.255053	191.631317	166.320801
274.307482	207.576752	161.762238
274.359910	193.386078	158.672333
274.412339	208.168030	179.119110
274.464768	205.459595	161.590576
274.517197	208.110809	180.683136
274.569626	191.802979	169.143677
274.622054	192.165375	184.326172
274.674483	193.004608	172.367096
274.726912	212.707520	154.495239
274.779341	191.535950	156.002045
274.831770	231.933594	176.086426
274.884198	188.198090	165.233612
274.936627	220.584869	178.279877
274.989056	190.048218	144.100189
275.041485	235.099792	191.040039
275.093914	209.350586	170.783997
275.146342	211.086273	169.353485
275.198771	178.146362	163.478851
275.251200	215.511322	144.824982
275.303629	200.996399	165.710449
275.356058	182.914734	161.476135
275.408486	212.554932	167.655945
275.460915	205.535889	167.655945
275.513344	214.786530	162.200928
275.565773	189.342499	146.408081
275.618202	191.001892	167.579651
275.670630	161.590576	166.149139
275.723059	204.639435	167.751312
275.775488	201.663971	154.762268
275.827917	186.195374	185.375214
275.880346	211.734772	149.326324
275.932774	211.677551	176.429749
275.985203	191.135406	172.481537
276.037632	203.552246	179.157257
276.090061	195.617676	168.151855
276.142490	201.835632	155.353546
276.194918	207.328796	183.143616
276.247347	188.522339	162.830353
276.299776	189.609528	160.121918
276.352205	207.500458	163.230896
276.404634	211.677551	174.865723
276.457062	215.721130	165.748596
276.509491	207.176208	171.089172
276.561920	191.593170	163.536072
276.614349	207.462311	152.664185
276.666778	180.778503	174.541473
276.719206	218.391418	162.372589
276.771635	220.603943	168.972015
276.824064	205.097198	171.356201
276.876493	192.775726	162.372589
276.928922	229.740143	208.721161
276.981350	223.178864	187.034607
277.033779	205.535889	171.566010
277.086208	213.546753	166.416168
277.138637	215.911865	170.001984
277.191066	167.160034	154.361725
277.243494	196.590424	161.495209
277.295923	188.179016	170.135498
277.348352	159.206390	140.247345
277.400781	198.116302	160.312653
277.453210	182.285309	171.184540
277.505638	201.625824	170.211792
277.558067	195.102692	185.375214
277.610496	186.939240	159.263611
277.662925	205.249786	178.871155
277.715354	203.990936	169.830322
277.767782	180.816650	151.023865
277.820211	204.772949	169.429779
277.872640	211.505890	188.846588
277.925069	203.914642	169.124603
277.977498	224.971771	182.266235
278.029926	180.358887	149.211884
278.082355	181.751251	183.830261
278.134784	185.832977	184.516907
278.187213	219.898224	158.767700
278.239642	217.494965	169.906616
278.292070	203.514099	179.824829
278.344499	199.298859	132.770538
278.396928	196.456909	179.176331
278.449357	194.187164	175.418854
278.501786	224.494934	194.416046
278.554214	203.800201	180.664062
278.606643	188.961029	168.342590
278.659072	176.372528	159.988403
278.711501	196.380615	180.683136
278.763930	193.824768	162.734985
278.816358	202.941895	177.917480
278.868787	208.053589	157.222748
278.921216	203.704834	172.348022
278.973645	194.034576	176.639557
279.026074	204.143524	162.601471
279.078502	217.418671	183.715820
279.130931	197.753906	176.467896
279.183360	185.050964	163.192749
279.235789	192.375183	168.571472
279.288218	213.813782	180.053711
279.340646	196.895599	186.119080
279.393075	227.947235	183.010101
279.445504	222.339630	172.958374
279.497933	209.674835	171.604156
279.550362	182.685852	146.865845
279.602790	188.560486	172.424316
279.655219	189.533234	174.179077
279.707648	220.012665	161.800385
279.760077	198.822021	162.124634
279.812506	197.486877	152.492523
279.864934	182.018280	165.233612
279.917363	189.952850	167.045593
279.969792	201.244354	172.176361
280.022221	173.339844	158.805847
280.074650	209.732056	179.538727
280.127078	187.721252	163.860321
280.179507	222.835541	156.631470
280.231936	200.672150	181.560516
280.284365	191.192627	168.209076
280.336794	200.595856	156.459808
280.389222	213.031769	178.127289
280.441651	217.418671	162.696838
280.494080	201.206207	157.756805
280.546509	185.699463	165.500641
280.598938	206.451416	167.903900
280.651366	176.429749	156.574249
280.703795	201.053619	166.530609
280.756224	208.816528	153.007507
280.808653	214.748383	175.094604
280.861082	178.241730	154.209137
280.913510	202.236176	182.247162
280.965939	203.895569	159.282684
281.018368	205.516815	167.446136
281.070797	189.952850	158.519745
281.123226	201.148987	161.342621
281.175654	187.664032	170.593262
281.228083	183.353424	162.887573
281.280512	191.993713	158.176422
281.332941	181.446075	173.854828
281.385370	173.950195	159.797668
281.437798	166.797638	152.759552
281.490227	184.707642	152.626038
281.542656	211.544037	169.391632
281.595085	197.296143	169.372559
281.647514	194.053650	175.685883
281.699942	188.579559	163.383484
281.752371	203.952789	147.018433
281.804800	225.334167	173.263550
281.857229	193.901062	145.568848
281.909658	199.966431	169.429779
281.962086	197.944641	159.702301
282.014515	205.307007	188.922882
282.066944	195.121765	152.969360
282.119373	204.582214	145.683289
282.171802	192.661285	170.059204
282.224230	188.922882	172.195435
282.276659	177.345276	161.457062
282.329088	199.279785	178.718567
282.381517	182.476044	157.737732
282.433946	215.263367	173.053741
282.486374	185.852051	171.260834
282.538803	195.083618	156.364441
282.591232	193.099976	183.258057
282.643661	227.203369	156.764984
282.696090	178.394318	150.947571
282.748518	237.083435	190.124512
282.800947	177.631378	176.181793
282.853376	186.862946	161.895752
282.905805	186.958313	159.091949
282.958234	211.219788	162.391663
283.010662	221.214294	165.634155
283.063091	168.552399	161.685944
283.115520	188.217163	162.601471
283.167949	214.691162	166.034698
283.220378	209.102631	152.683258
283.272806	182.762146	163.364410
283.325235	180.912018	154.933929
283.377664	175.457001	157.394409
283.430093	198.154449	146.846771
283.482522	191.192627	170.650482
283.534950	232.830048	182.571411
283.587379	191.707611	183.506012
283.639808	203.132629	158.729553
283.692237	196.666718	181.350708
283.744666	197.238922	157.089233
283.797094	213.584900	164.489746
283.849523	205.421448	165.481567
283.901952	209.102631	181.083679
283.954381	190.734863	165.672302
284.006810	213.413239	151.309967
284.059238	222.072601	184.974670
284.111667	190.792084	170.516968
284.164096	197.696686	163.936615
284.216525	196.304321	165.615082
284.268954	200.996399	173.511505
284.321382	208.721161	181.999207
284.373811	194.263458	187.721252
284.426240	200.443268	178.508759
284.478669	178.470612	172.557831
284.531098	218.982697	169.563293
284.583526	191.764832	159.492493
284.635955	209.007263	172.061920
284.688384	215.492249	184.459686
284.740813	212.135315	161.819458
284.793242	188.713074	159.816742
284.845670	186.653137	157.012939
284.898099	205.917358	174.350739
284.950528	191.135406	165.977478
285.002957	208.835602	173.282623
285.055386	201.072693	165.996552
285.107814	217.914581	166.130066
285.160243	189.170837	165.462494
285.212672	229.396820	170.040131
285.265101	207.424164	169.906616
285.317530	175.361633	152.034760
285.369958	216.503143	173.320770
285.422387	220.184326	186.634064
285.474816	217.208862	170.612335
285.527245	226.764679	177.631378
285.579674	194.435120	164.279938
285.632102	190.601349	170.974731
285.684531	211.315155	164.890289
285.736960	214.252472	167.064667
285.789389	195.617676	157.775879
285.841818	193.901062	153.751373
285.894246	166.587830	144.062042
285.946675	208.110809	163.650513
285.999104	205.802917	167.064667
286.051533	196.952820	185.813904
286.103962	190.258026	164.375305
286.156390	215.682983	172.557831
286.208819	196.189880	174.808502
286.261248	167.312622	139.331818
286.313677	202.579498	177.326202
286.366106	221.252441	154.075623
286.418534	228.309631	188.922882
286.470963	198.593140	167.064667
286.523392	217.285156	178.699493
286.575821	201.110840	181.655884
286.628250	209.465027	165.424347
286.680678	193.901062	155.868530
286.733107	202.980042	155.601501
286.785536	197.429657	158.081055
286.837965	200.748444	166.740417
286.890394	206.527710	188.026428
286.942822	220.623016	176.372528
286.995251	208.282471	158.557892
287.047680	227.661133	159.339905
287.100109	202.274323	169.315338
287.152538	179.271698	172.386169
287.204966	209.426880	173.416138
287.257395	197.105408	161.838531
287.309824	197.334290	162.734985
287.362253	199.089050	172.519684
287.414682	187.931061	157.852173
287.467110	184.078217	164.279938
287.519539	202.350616	173.797607
287.571968	180.435181	163.211823
287.624397	203.762054	156.574249
287.676826	177.001953	161.972046
287.729254	222.015381	184.745789
287.781683	193.862915	158.004761
287.834112	202.255249	166.854858
287.886541	193.119049	155.620575
287.938970	200.080872	176.239014
287.991398	201.282501	150.871277
288.043827	182.819366	139.408112
288.096256	205.650330	167.541504
288.148685	211.849213	166.435242
288.201114	196.819305	171.680450
288.253542	223.007202	164.051056
288.305971	196.971893	169.315338
288.358400	200.996399	160.751343
288.410829	181.922913	154.972076
288.463258	228.538513	189.685822
288.515686	201.377869	171.184540
288.568115	204.353333	156.917572
288.620544	205.039978	163.822174
288.672973	176.849365	163.002014
288.725402	198.497772	170.898437
288.777830	217.819214	148.162842
288.830259	188.140869	184.841156
288.882688	190.544128	161.952972
288.935117	195.236206	152.797699
288.987546	206.928253	162.563324
289.039974	170.764923	160.465240
289.092403	231.018066	179.271698
289.144832	199.146271	154.571533
289.197261	185.565948	140.724182
289.249690	199.661255	155.887604
289.302118	203.838348	153.865814
289.354547	190.811157	172.424316
289.406976	205.841064	161.533356
289.459405	178.184509	161.895752
289.511834	204.944611	167.121887
289.564262	209.636688	157.947540
289.616691	192.737579	175.666809
289.669120	196.342468	171.928406
289.721549	203.132629	165.309906
289.773978	188.560486	159.969330
289.826406	202.236176	146.656036
289.878835	198.059082	179.595947
289.931264	181.846619	157.165527
289.983693	193.939209	145.511627
290.036122	189.914703	164.279938
290.088550	202.789307	188.446045
290.140979	196.609497	164.813995
290.193408	201.892853	158.061981
290.245837	171.203613	162.239075
290.298266	203.914642	154.552460
290.350694	198.688507	173.950195
290.403123	220.947266	155.200958
290.455552	172.367096	179.023743
290.507981	203.800201	165.939331
290.560410	202.903748	177.326202
290.612838	184.135437	175.590515
290.665267	179.119110	164.909363
290.717696	174.541473	164.203644
290.770125	168.838501	140.857697
290.822554	183.906555	174.350739
290.874982	184.936523	149.555206
290.927411	194.282532	164.585114
290.979840	173.797607	149.879456
291.032269	188.140869	171.775818
291.084698	209.465027	194.873810
291.137126	224.571228	168.285370
291.189555	194.778442	193.538666
291.241984	187.053680	171.623230
291.294413	216.865540	183.048248
291.346842	184.288025	171.432495
291.399270	204.944611	170.345306
291.451699	192.337036	160.140991
291.504128	193.805695	171.852112
291.556557	208.129883	153.427124
291.608986	187.435150	179.119110
291.661414	201.396942	175.724030
291.713843	216.255188	177.078247
291.766272	189.723969	148.448944
291.818701	195.350647	155.639648
291.871130	218.124390	175.018311
291.923558	208.358765	172.195435
291.975987	233.783722	167.922974
292.028416	219.020844	154.514313
292.080845	195.674896	158.195496
292.133274	207.538605	157.604218
292.185702	183.563232	157.032013
292.238131	179.080963	159.606934
292.290560	240.440369	185.451508
292.342989	206.260681	166.835785
292.395418	209.064484	175.380707
292.447846	184.803009	163.993835
292.500275	198.574066	172.176361
292.552704	194.129944	142.955780
292.605133	239.295959	180.454254
292.657562	179.347992	150.833130
292.709990	191.116333	160.007477
292.762419	214.443207	165.805817
292.814848	199.775696	158.023834
292.867277	196.208954	174.179077
292.919706	191.822052	161.647797
292.972134	192.184448	145.206451
293.024563	181.083679	175.647736
293.076992	211.944580	165.805817
293.129421	241.527557	173.892975
293.181850	228.271484	195.655823
293.234278	182.476044	154.991150
293.286707	211.830139	165.443420
293.339136	190.696716	174.617767
293.391565	216.007233	178.871155
293.443994	186.748505	161.876678
293.496422	188.388824	164.699554
293.548851	209.770203	180.892944
293.601280	179.557800	172.939301
293.653709	188.064575	166.168213
293.706138	200.176239	162.658691
293.758566	214.710236	166.683197
293.810995	224.552155	176.620483
293.863424	186.214447	155.429840
293.915853	191.593170	163.021088
293.968282	209.503174	173.015594
294.020710	197.219849	176.048279
294.073139	199.699402	166.416168
294.125568	184.154510	156.440735
294.177997	196.723938	165.843964
294.230426	215.377808	182.170868
294.282854	187.740326	164.031982
294.335283	171.718597	186.080933
294.387712	194.149017	177.631378
294.440141	189.018250	166.206360
294.492570	240.211487	182.666779
294.544998	187.110901	177.497864
294.597427	229.625702	203.361511
294.649856	211.849213	188.350677
294.702285	203.227997	166.378021
294.754714	206.680298	170.383453
294.807142	202.312469	165.252686
294.859571	189.247131	171.661377
294.912000	196.151733	156.421661
294.964429	198.917389	174.102783
295.016858	186.710358	159.358978
295.069286	181.121826	166.168213
295.121715	208.377838	187.435150
295.174144	192.699432	178.775787
295.226573	232.620239	180.950165
295.279002	199.527740	180.110931
295.331430	193.653107	155.811310
295.383859	207.843781	162.086487
295.436288	197.486877	159.587860
295.488717	197.467804	178.890228
295.541146	193.595886	166.988373
295.593574	202.655792	182.762146
295.646003	218.334198	190.429687
295.698432	197.734833	163.269043
295.750861	194.149017	188.407898
295.803290	211.544037	163.059235
295.855718	213.737488	188.903809
295.908147	205.974579	172.348022
295.960576	196.628571	156.650543
296.013005	202.217102	190.200806
296.065434	201.873779	165.920258
296.117862	211.963654	163.040161
296.170291	200.824738	169.048309
296.222720	198.516846	171.413422
296.275149	199.794769	146.961212
296.327578	217.247009	166.130066
296.380006	191.612244	161.190033
296.432435	202.026367	167.713165
296.484864	202.369690	167.179108
296.537293	213.546753	168.437958
296.589722	204.792023	176.734924
296.642150	198.020935	177.211761
296.694579	186.271667	164.508820
296.747008	192.527771	162.849426
296.799437	191.650391	181.007385
296.851866	179.748535	167.083740
296.904294	189.552307	155.410767
296.956723	191.955566	155.963898
297.009152	189.685822	152.606964
297.061581	187.053680	173.835754
297.114010	172.576904	160.217285
297.166438	194.988251	167.846680
297.218867	209.407806	170.211792
297.271296	207.004547	153.598785
297.323725	183.811188	156.192780
297.376154	201.110840	165.843964
297.428582	204.715729	171.470642
297.481011	189.762115	153.236389
297.533440	212.268829	175.971985
297.585869	169.506073	130.424500
297.638298	177.021027	148.773193
297.690726	203.609467	150.356293
297.743155	175.495148	146.179199
297.795584	197.620392	178.184509
297.848013	169.849396	150.184631
297.900442	181.198120	139.636993
297.952870	195.636749	164.375305
298.005299	186.080933	158.500671
298.057728	198.059082	176.067352
298.110157	205.287933	164.394379
298.162586	190.715790	169.563293
298.215014	196.914673	160.121918
298.267443	176.372528	148.944855
298.319872	196.666718	154.094696
298.372301	181.159973	165.004730
298.424730	187.988281	172.004700
298.477158	206.928253	151.348114
298.529587	195.293427	164.070129
298.582016	204.181671	174.255371
298.634445	182.418823	154.361725
298.686874	220.527649	194.797516
298.739302	183.200836	156.898499
298.791731	204.029083	168.609619
298.844160	218.639374	194.244385
298.896589	211.296082	160.503387
298.949018	211.505890	179.443359
299.001446	200.595856	171.566010
299.053875	200.729370	167.751312
299.106304	220.928192	185.031891
299.158733	193.939209	166.034698
299.211162	210.781097	158.843994
299.263590	201.187134	179.634094
299.316019	185.375214	153.598785
299.368448	199.794769	165.634155
299.420877	194.110870	175.075531
299.473306	212.345123	165.348053
299.525734	204.105377	149.250031
299.578163	202.484131	160.770416
299.630592	199.279785	166.835785
299.683021	244.407654	177.955627
299.735450	198.268890	164.470673
299.787878	204.048157	145.854950
299.840307	205.612183	179.786682
299.892736	197.753906	138.435364
299.945165	207.576752	186.557770
299.997594	186.080933	162.277222
300.050022	191.135406	149.097443
300.102451	210.742950	177.383423
300.154880	220.355988	159.149170
300.207309	200.462341	156.116486
300.259738	199.947357	154.857635
300.312166	180.549622	175.628662
300.364595	199.966431	162.601471
